trial,t,ax,ay,az,wx,wy,wz,yaw
warmup,355.992,0.024308919728113814,0.018544102663866927,9.861745377406528,-0.00028252589809928873,0.00025147194802442976,-0.001591248961682663,-2.56041995565041e-11
warmup,356.001,-0.02946032399937873,0.00558121012566493,9.809562842169402,0.002875825196079002,-0.0018789255040000553,0.0019304602766966451,-2.560419473400378e-11
reset,356.01,-0.025295974404009935,0.0024408634554156762,9.781507538174521,0.00103148783791998,-0.001280351176027759,0.000659795103556725,-2.5604189914136374e-11
reset,356.022,-0.018238874125026668,-0.039539329851404355,9.816774338566226,0.0015361648811265884,0.0012465759724446352,-0.00047253120802628575,-2.560418348496859e-11
reset,356.031,2.0753544100487743e-06,0.006109551494557628,9.796508792291037,-1.867075202089301e-06,0.003454400461302038,0.000620929778484565,-2.5604178663824758e-11
reset,356.04,0.007356005854820093,-0.008326723491008554,9.781929188517339,0.000968745755172424,0.0004122983442151037,0.0011715898145491783,-2.5604173844951524e-11
reset,356.052,0.059912060748178786,0.006555103550045715,9.810742436810239,0.004000221141951063,-0.002956372097882272,-8.517891224548547e-05,-2.5604167410893483e-11
reset,356.061,-0.017445029685775427,0.003736955651126126,9.79108255667176,0.002254616742467097,-0.0006054744308733998,-0.0024505672805054616,-2.5604162589391938e-11
reset,356.07,0.019945214486090792,-0.026229898387620913,9.807691866909515,0.0026366278749364513,-0.0007697984112735231,0.0005693150471799317,-2.5604157767019508e-11
reset,356.082,0.03216815167412437,0.034347761323449064,9.836817355040775,-0.004147883562524087,-0.0023957865840366892,-0.003235814017393477,-2.560415134000086e-11
reset,356.091,0.009281806755725281,-0.026757271882490143,9.798283638606819,-0.00293571349910389,-0.00041347241594811684,-0.004547012052715303,-2.560414651910722e-11
reset,356.1,-0.008873941655893376,-0.04794901337720216,9.787679312461545,0.0048356587527064,0.002097600621668152,-0.002517149644387988,-2.5604141697075216e-11
reset,356.112,0.01810409682083367,0.009318221036681137,9.835685447967089,0.0017194831489177576,0.0014366120993573694,-0.002075930686230808,-2.560413526581498e-11
reset,356.121,0.03868318445508943,-0.07277635274189645,9.801060658539987,-0.002609077542133176,-0.0010851423909953664,0.0031184994141212536,-2.5604130443118903e-11
reset,356.13,-0.006410492313717073,-0.0182746609500328,9.820463273536689,0.0011167080342846351,-0.001638910715846097,-0.00214551542065796,-2.5604125621692305e-11
reset,356.142,0.02603358867180397,0.005727909038785597,9.828742799535185,-0.0012361008143357572,-0.0018268958182255984,-0.0010183318529065504,-2.560411919540098e-11
reset,356.151,0.02437029823183307,0.00024703938978848784,9.851385282136533,-1.0108423333556302e-05,0.0007733599019053601,0.00029100059232685155,-2.5604114373443875e-11
reset,356.16,-0.023913231635385623,-0.062016432862543325,9.777372234230729,-0.00214698066321801,-2.5310730317604982e-05,0.0016245379303843873,-2.5604109550951526e-11
reset,356.172,-0.005602714810916388,-0.05190120160452544,9.847681157209466,4.76747326789531e-05,0.0004269272192687339,-0.0005203703008565309,-2.5604103124238173e-11
reset,356.181,-0.03710465119928741,0.0004155068462838041,9.782086387984908,-0.0034055147483859237,0.0012756215687341308,0.0003143525533415102,-2.560409830202243e-11
reset,356.19,-0.006807482279108222,-0.03166243214202467,9.78375519033729,0.002015643579003581,-0.0015390080798671638,0.002632580699544998,-2.560409348086424e-11
reset,356.202,0.041808954506301045,-0.03077985602513318,9.827357402223232,0.0021557869974166183,-0.0019023198807654764,-0.0010340981112671257,-2.5604087053528122e-11
reset,356.211,-0.03934267552466241,0.00548330499070434,9.791685294636903,0.0014130920366157557,-0.00068974998668486,-0.006550493709391647,-2.5604082231769524e-11
reset,356.22,-0.05869285963720786,0.06946121590422161,9.737846740064557,0.0008168974434999878,-0.0015887861930538323,0.0017504383901672564,-2.56040774110447e-11
reset,356.232,-0.0259443087441399,0.03472041082510844,9.771212068957029,-0.0007848462006256459,0.0019804467767406135,-0.001179359213623015,-2.5604070982854066e-11
reset,356.241,-0.009933755842964692,0.021681378848132805,9.819893882514735,-0.00548001791948977,0.0020904130125432843,-0.00021401078041951804,-2.5604066159277697e-11
reset,356.25,0.0005184709930936201,-0.007486697528073276,9.788395445746755,0.0008803319117718602,0.003959960295977163,0.0006204356063809811,-2.5604061338065462e-11
reset,356.262,0.03789207754375495,0.009349466183101616,9.77668905584782,-0.00022094991575313049,-0.0024516872945698712,-0.0028432364542338192,-2.5604054912156148e-11
reset,356.271,-0.018392701841270866,0.0038393423493582332,9.737006045213597,0.004722771328591113,0.0018135170861721154,-0.0017005229718054162,-2.5604050088101484e-11
reset,356.28,-0.001891256184656582,-0.0095288598828048,9.789199353932476,-0.000968332622550232,-0.0014505436718611543,0.0011973067128967232,-2.5604045264961766e-11
reset,356.292,-0.021911249068152075,0.02341568304959991,9.818687310761788,0.0002489655307367848,-0.0031397426760190455,-0.003084593905903259,-2.5604038833968342e-11
reset,356.301,-0.00536711161091021,-0.02478688971309402,9.810648356506627,-0.0008055172707960571,0.0034591110933856056,0.0004269627928522724,-2.560403401209134e-11
reset,356.31,-0.023251084785315262,0.02142919060574985,9.7986809696986,0.00036573961501852365,-0.002138154641421496,-0.002233451433664267,-2.560402919018363e-11
reset,356.322,-0.02040298448365397,-0.03349401130197368,9.791276545080915,0.0023833447320709147,-0.0007745418848673463,-0.002028475660716107,-2.5604022760008018e-11
reset,356.331,0.0018805973104489726,0.03691940980373258,9.825006281051579,0.001785638463868104,-0.002427498294109269,-0.0015576866471112567,-2.560401793651858e-11
reset,356.34,0.016696954545612305,-0.0027433197740146516,9.80503835363483,-0.0025194217634881746,-0.00165876088956144,0.00015995733394149987,-2.560401311587436e-11
reset,356.352,0.029044716564864476,-0.03780002589253544,9.796498166813233,-0.0015897885476852324,0.003071512737909937,0.0021353405366156784,-2.5604006689713195e-11
reset,356.361,-0.001957583574982555,0.025789221189438577,9.782287563541917,-0.00017026525018466984,0.003177197870461601,-0.0016890300165526098,-2.5604001866367913e-11
reset,356.37,-0.02387569046535501,0.03883440167802174,9.768525515408971,0.0008667354267510908,0.0008253442352529935,0.0008221869630990098,-2.5603997047105704e-11
reset,356.382,-0.014149921894751536,-0.012934047510622706,9.819762531444765,0.0020968639394594846,-0.0028611194583853922,0.00022022713720057962,-2.5603990615428286e-11
reset,356.391,0.015882813693931394,0.004109617336528928,9.81461666033443,0.0034928737642814776,-0.0002757646816535559,-0.0006089628395180245,-2.5603985791535898e-11
reset,356.4,-0.02154516334427052,0.03223782965303396,9.769484917759083,0.0018675356801129562,0.002303130624486912,-0.0015615370873813454,-2.560398097234894e-11
reset,356.412,-0.039104333775123415,0.015558679239559066,9.769685550449863,0.0018877754286805333,-0.0007233760916442706,-0.001608459955745089,-2.5603974543379937e-11
reset,356.421,-0.013794581696160489,-0.021639679686313525,9.812671575891946,0.002684864938760582,0.00019484555751829205,0.0016018129604637857,-2.560396972094228e-11
reset,356.43,-0.03966383165383312,-0.007803286871369619,9.808808343105865,-0.0050127116830626815,-0.0006161251319397611,0.0006595949093505637,-2.5603964900296362e-11
reset,356.442,0.025223283114795474,-0.0006290147511367417,9.845475363711595,-6.948301814411998e-05,0.001763382235255827,-0.0017043160564570495,-2.560395847037535e-11
reset,356.451,0.015043466314670163,-0.014480963450469876,9.777680205013153,0.0030710850379697435,0.0006912198112243501,0.0017842351030399083,-2.5603953648276136e-11
reset,356.46,0.018141928405779238,0.031642431234368586,9.797652754546105,0.0001416752482240397,0.0007439492426754475,0.002669659489343251,-2.560394882929848e-11
reset,356.472,0.024220355888909844,0.05117931186579732,9.805376349641758,0.001101114302180853,-0.00014386682360367775,0.0007991306481786435,-2.5603942401063197e-11
reset,356.481,-0.024376912970764532,0.018849208883441965,9.828580260136023,-0.002356099800518276,0.00016785169685304437,0.0030279871338527676,-2.560393757891131e-11
reset,356.49,-0.003885668694181366,-0.005740486598043472,9.79537657323395,-0.00023779272425413728,0.000841106914495149,0.0019756456388086777,-2.560393275713866e-11
reset,356.502,-0.016752177954969638,0.037083922579870796,9.814609484416856,0.0014937575622290674,-0.0026193562536625976,-0.0016469790516425472,-2.560392632966239e-11
reset,356.511,0.013520532100812959,-0.018556659117489077,9.788302126464988,0.0012429356372180695,0.001916342751367311,-0.001299524799984232,-2.560392150779536e-11
reset,356.52,-0.0003431803491836209,0.007704153679837874,9.799418081000129,0.0028882744320386845,-0.0005327122375024335,-0.0006571777196050854,-2.5603916685741833e-11
reset,356.532,0.03278454281810536,-0.019738110505555247,9.81391470226261,0.0017264853228387456,-0.0020019406621836467,-0.001718033422167255,-2.5603910255533872e-11
reset,356.541,0.010228749100812331,-0.03217664182596143,9.747963473672437,0.0016991326235682985,-0.0012405290119236832,-0.0006007206265287382,-2.5603905432153968e-11
reset,356.55,-0.021366084741174386,-0.022980201513381263,9.761557496342219,-0.0038038340771580576,8.926162183296179e-05,-0.0022720520243397573,-2.5603900607725173e-11
reset,356.562,-0.026798329872468742,0.03439253068733659,9.81481645395659,-0.0012749239807497458,0.0004654342280634449,-0.001603736466952734,-2.5603894175491236e-11
reset,356.571,-0.010937750938433665,0.0010944564061536608,9.824416436733724,-0.001376509488687754,0.002231349308601882,-0.00027895986051042687,-2.5603889354964187e-11
reset,356.58,0.033759806855762284,-0.013599021519366981,9.842592583350429,0.001613385180170674,0.002642745795357868,0.0015673690318515905,-2.560388453482649e-11
reset,356.592,-0.030940567041231493,-0.04303963393832332,9.867074747609355,-0.0019403547764394774,-0.0029437506350743913,-0.0012986350348196255,-2.5603878106811632e-11
reset,356.601,-0.013461964314021739,-0.00723278573556758,9.764610627003886,-0.0016303574006833893,0.0011371747069228407,0.0010633544538046656,-2.5603873282668664e-11
reset,356.61,-0.03198301660423442,0.020283878703343656,9.769273231422607,-0.002921177148013791,-0.0009522509698161257,-0.0016302115940895453,-2.5603868459292595e-11
reset,356.622,-0.0031324896726304917,-0.05431785537360685,9.80458111669146,0.002341620013970072,0.0010218897888581548,-0.0007158189849159717,-2.5603862028201968e-11
reset,356.631,-0.00025378972581580983,0.013051744506040826,9.839314754721386,-0.00017869271952183476,0.0016447367110987556,0.003452480656327413,-2.5603857208623924e-11
reset,356.64,0.06097505936923055,0.018835402143630626,9.825367054151831,-0.000997829065637394,-0.0006918093212399162,0.0024790000872812194,-2.560385238901676e-11
reset,356.652,0.04075411884383874,-0.029046469222681393,9.824929842279701,0.001535493656709044,0.0038190628533654124,-0.00027897055953436293,-2.5603845963079958e-11
reset,356.661,0.024296514151520007,0.009374799404745764,9.837857893724994,0.0011736301375534798,-0.000477920348489671,0.0015701997707458267,-2.560384114229259e-11
reset,356.67,-0.04719878465135655,-0.045075679585558956,9.811035008981627,-0.0017498067217910998,-0.0029691693390935595,0.0012174203884906221,-2.560383632017835e-11
reset,356.682,0.03213276388470346,-0.004479145460492423,9.736658382660096,0.0007862578549058031,0.00398165374722609,-0.0008840797051446066,-2.560382989254301e-11
reset,356.691,-0.014195274849166491,0.016211063239123254,9.79597879920009,-0.0011082379364090488,0.002793550631416186,-0.00482055827274612,-2.560382507118731e-11
reset,356.7,0.007507836208292795,-0.017464753716501268,9.772833293862895,0.003983547838632723,0.0016289597712559158,-0.002727132382677114,-2.5603820252805723e-11
reset,356.712,0.02510832691003607,-0.04970776211072783,9.80922206561214,-0.0003577512423454104,0.000772515277145118,-0.0004948086042369717,-2.560381382537226e-11
reset,356.721,-0.01595445548616025,0.03471092856835218,9.798426934058924,5.120666823853275e-05,-0.0008323505076526982,-9.371659800568345e-05,-2.560380900237225e-11
reset,356.73,-0.02091001502801277,0.03440779265222106,9.782398778943147,-0.0003276062238580339,0.0008503589149482518,0.00010361003574603175,-2.5603804179922442e-11
reset,356.742,-0.06833881584632472,-0.0004995984492807605,9.799702105090796,-0.002186902628243179,4.818915963693099e-05,-0.0010762912069892667,-2.5603797751297963e-11
reset,356.751,0.01479098300310802,-0.04678554153554286,9.785363647870119,0.0012024513860925347,0.0037852370784084233,0.0019347442105856205,-2.5603792928331708e-11
reset,356.76,-0.00347789793550774,-0.018884562737909904,9.790703941372477,0.0022345326282783746,0.0007967482230321478,0.0004250490372094165,-2.5603788106155907e-11
reset,356.772,-0.0559106607503382,-0.02723379665385218,9.801298434365739,0.0011590294683816553,0.0026228534936261136,-0.000545895304491108,-2.560378167671195e-11
reset,356.781,-0.03430362654359513,-0.020925855458522165,9.81109730047775,0.0029997131566633023,-0.0034022576506124234,-0.0027705587854646653,-2.5603776854019023e-11
reset,356.79,0.026299707730004267,-0.035502048343985265,9.778940075071713,0.0018511058224525228,-0.000393866855620636,-0.0011348201799372965,-2.5603772033474966e-11
reset,356.802,0.0234666473325206,0.008845433997354251,9.77314832810353,0.0010695884252643272,0.002518375558804927,0.0025139556933917555,-2.560376560396683e-11
reset,356.811,-0.005535656408379446,-0.05127363628126601,9.786285310124514,1.588360565001427e-05,0.001486028219274821,0.0005003114330075519,-2.5603760780774258e-11
reset,356.82,-0.017698375215551287,-0.03671813663910197,9.803205736354336,-0.0007340194191593096,0.002263297872882241,-0.003686359918646353,-2.5603755957287612e-11
reset,356.832,-0.01047946087751577,-0.0031659845430904226,9.820103512072931,0.0005673182543941345,0.00016317505959378452,0.002206187209471008,-2.5603749526622692e-11
reset,356.841,0.02643030471841712,-0.0019982903475413553,9.795849450854202,-0.000467516384957666,-0.0011137258571335346,-0.0004437069895361931,-2.5603744703718514e-11
reset,356.85,-0.02793998023308768,-0.020469663561017017,9.798956709954902,-0.0008084979598737641,-0.004401086724258922,-0.0022630819015805378,-2.5603739879157964e-11
reset,356.862,-0.01825923992514572,0.049827331514812556,9.873365386852315,-0.001277426151005672,0.00022960289174668862,-0.0009814140203068414,-2.5603733450417977e-11
reset,356.871,-0.03568496523797359,-0.010078444688684345,9.791614454010785,0.0014676194258819862,-0.00043479335435051654,-0.0034384999292200766,-2.560372862764111e-11
reset,356.88,0.027782151684069067,0.04682844870684909,9.776927031818733,-0.001088459360839364,-0.0004478757408856123,-0.00038715046637012243,-2.5603723805235687e-11
reset,356.892,-0.006854608549093313,-0.007744258756347191,9.797369320102414,0.004167555165892694,3.07099991238758e-05,-0.001657882431634715,-2.560371738115543e-11
reset,356.901,-0.0017462122925846009,-0.05735804883223333,9.851978160188496,-0.0004661467743614982,0.001131662685183463,-0.0008404590623847652,-2.5603712558368848e-11
reset,356.91,0.008204599000989077,-0.03083541417896292,9.81081022076352,-0.0002510306369244801,0.0002779498358640467,0.002467308300045017,-2.5603707735287892e-11
reset,356.922,-0.059147684044327374,0.01032177339587767,9.776835863569508,-0.0018730983845966,-0.0005659286711875349,-0.0005816146419318122,-2.560370130601432e-11
reset,356.931,-0.005256307278441045,-0.057310026966170054,9.818428458672795,-0.0018640211407461638,1.923110974676989e-05,-0.001055674276882739,-2.560369648466516e-11
reset,356.94,-0.024820551925172823,-0.023196433346371247,9.74871375446014,-0.0012328841169895325,0.0009779308407401154,-0.000938001642141905,-2.56036916645633e-11
reset,356.952,0.05702977638172366,-0.008713323148196131,9.79260695665143,0.0027846840812704465,-0.0017935858898493508,-0.002039537357067014,-2.5603685238455073e-11
reset,356.961,-0.031768006911962195,-0.0059392874245469225,9.765516205546117,0.0011069803038952289,-0.0035533997567840175,-3.19376738803372e-05,-2.5603680417147657e-11
reset,356.97,0.028347637704464662,-0.01043907548097094,9.809052078900587,-0.000212962946023102,0.0017836112555025489,0.0027220281719118554,-2.560367559563696e-11
reset,356.982,0.03847593995033282,-0.041835482216549105,9.82715552528213,0.0006677176373840767,-0.0010111157540387678,-0.004252283935455261,-2.560366916791187e-11
reset,356.991,0.01188959878128215,0.003759452455640663,9.810185879395362,0.0013989191005698114,0.0012897130958414691,-0.0010217292091291483,-2.560366434559065e-11
reset,357.0,-0.009346541151390268,-0.013601449400338245,9.793504677205487,0.0024402933055863137,-0.0007486716151917828,-0.0013348862515742252,-2.5603659526062248e-11
reset,357.162,0.00618253225129758,-0.032020107941683425,9.784887283364256,-0.0012253111293238723,-0.0012712982559274755,0.000651487523193229,-2.5603572738578274e-11
reset,357.171,-0.032530603780048156,-0.02540282758607708,9.791990804939616,-0.0020962321802038804,-0.002290737470400327,-0.0021642113772897416,-2.560356791801865e-11
reset,357.18,-0.06422992762879345,-0.02415485882646066,9.829917123554129,0.0011371036404141882,0.00014330483011185902,0.002369597366573135,-2.5603563098472992e-11
reset,357.192,-0.015297703882023297,0.03128601096958624,9.78771114401817,0.0011416762134254068,-0.0009128132557877218,3.90749888572084e-05,-2.5603556671212385e-11
reset,357.201,-0.07820620446065499,0.03316640654886162,-0.041757315414103144,0.0034560742834561903,-0.001053586295930224,0.0018776583812707788,-2.566381650300638e-11
reset,357.21,-0.01324730239509582,0.04333142203479702,0.0337180054137963,0.000712181407394776,0.0001430921194751763,0.000560296600657892,-2.5663813290328216e-11
reset,357.222,0.0096922403223337,-0.0362423252530444,78.6838928481043,-0.0015115354990062574,-0.002643951905259696,-0.0013016483479676507,-2.5663880674321392e-11
reset,357.231,0.017558486887917946,0.015052556399980264,9.803091252992294,0.0003134045327101031,0.0010048670938203228,-0.0010641601496628426,-2.5663909197644496e-11
reset,357.24,-0.0316393979823984,-0.07582768145388907,9.790190344536535,-0.000866569133282147,0.000296887536837655,0.001234809246728076,-2.5663936670278237e-11
reset,357.252,0.07596797350956047,0.006379620461525395,9.79271609219561,-0.003940786960085323,-0.002155711513490198,-0.003740436139495035,-2.5663973349493843e-11
reset,357.261,0.00942973548201745,0.03238428830045574,9.824914540653046,0.0011507271099300848,0.0010946471538547126,-6.331652493376318e-05,-2.5664000894148102e-11
reset,357.27,0.01760459494957929,-0.03027158672631315,9.776777034404834,-0.0025975048786916074,-0.0016729076104057793,6.758617805825456e-05,-2.5664028471660648e-11
reset,357.282,0.020840868617332378,-0.005300501072316433,9.818768578840894,0.0022042434208466785,-0.000990626402061165,0.000347027782805556,-2.566406528924869e-11
reset,357.291,0.0021907356586863313,0.01277010183095582,9.85612758201295,0.0011113699429932088,0.0016630702483342152,0.0022439295503229374,-2.5664092935993377e-11
reset,357.3,0.04830944206229828,-0.01601561964707064,9.809356259298456,-0.0007361716420049428,0.0029690371688828516,0.001572303093528155,-2.5664120617676526e-11
reset,357.312,-0.07899350246005472,0.008835174284779609,9.786146511022226,0.0008693896177663146,-0.0009354589889418159,-0.0017732351362531858,-2.5664146008725018e-11
reset,357.321,-0.022591895627123274,0.005265990549655157,9.800437573940693,-0.0006976749323797332,-0.0007474602496474298,0.0018978068041319827,-2.566416150685711e-11
reset,357.33,0.050140122471221175,-0.027449279669436877,9.777893965984514,-0.001265831882301313,-0.0025116494582589333,0.0005627441176928625,-2.56641764234497e-11
reset,357.342,-0.00036121113568681043,0.008565157174930844,9.806456772888268,0.0028892382864753132,-0.0011681221705542315,0.00027036280446857315,-2.5664195427180554e-11
reset,357.351,6.290940147060447e-05,0.020259540467196722,9.762713355496473,-0.0002828579085045364,-8.912206653843536e-05,-0.0020317142501679927,-2.5664209040541458e-11
reset,357.36,-0.023308937791691648,-0.0188715257203203,9.793286128144299,0.005575042479912016,0.0017555301826684634,-0.00349323873381582,-2.5664222119537107e-11
reset,357.372,0.002147378221479787,0.003277865353411648,9.76215748441276,0.0012752763878123255,0.002129378125988811,0.0004874605907611388,-2.5664238761295534e-11
reset,357.381,0.04551482138637175,-0.029223878735333716,9.803548658271747,-0.0020979853445070662,0.004489713588433571,0.0007350634276205037,-2.566425065651839e-11
reset,357.39,0.021045802711707497,-0.011609910402505261,9.723455223948852,0.0002055920601282302,-0.0031548069760755767,-0.0004708842622756483,-2.5664262069833864e-11
reset,357.402,0.04020216139443918,0.046770494787904335,9.811679294426408,0.0013876192383278326,0.0029641590260975114,-0.0013364770962832934,-2.5664276553355536e-11
reset,357.411,-0.04975646654102389,-0.03892102092830193,9.805354239029754,-0.002879216009973584,0.0031483890257445264,-0.0024679331297761805,-2.5664286885033047e-11
reset,357.42,0.026328972192723246,0.021625172492489207,9.770678183602547,0.0044756516447671466,-6.290859859397208e-06,0.0016878355640992145,-2.5664296778436998e-11
reset,357.432,0.009043751263450282,0.01568254846416664,9.802608584645618,-0.0047366660187984815,-0.0022453893284403188,0.00037009721716908377,-2.5664309304423847e-11
reset,357.441,0.007112730226349729,0.02796742066396007,9.765810540304587,-0.001269319878253646,0.0019018495544746998,-0.0017656213369780685,-2.5664318216962854e-11
reset,357.45,0.0029644494178416654,0.006534703048575529,9.81199837933434,-0.002463654551051344,0.0008754272470083385,-0.0042763234641641544,-2.5664326730702907e-11
reset,357.462,-0.018912041088973118,-0.03255965894626309,9.798107163279616,-0.002347156850143681,-0.001959484528218664,-0.0025008819329165946,-2.56643374783346e-11
reset,357.471,0.020740183297898736,0.016088779761259494,9.805954070562871,0.00011495244672429699,-0.0004021245805868177,-0.0002673051183632331,-2.56643451036102e-11
reset,357.48,0.016517011980568156,0.023601999466201565,9.787089679344,-0.0029280188316909914,0.0004397775203381971,-0.0004657419154415328,-2.5664352363759615e-11
reset,357.492,0.05232012590625966,-0.06632961006006287,9.791247671062985,0.00012608034778728062,-0.0025842176899551353,0.0005138244431355373,-2.5664361497669547e-11
reset,357.501,0.007955117667802153,-0.017993388890944803,9.829082627369269,-0.0020198119555923286,0.0003463023682811788,-0.0008779444472054251,-2.5664367951533597e-11
reset,357.51,0.06126200711175143,-0.04623498379167106,9.794077517594383,0.003133266322647409,-0.0019318906648475818,-0.0021002062597305646,-2.5664374075142922e-11
reset,357.522,-0.042226157044486595,0.07800653925224889,9.774492073751627,0.0009283203927904288,0.001349872010957551,0.0005982098017675295,-2.566438173966484e-11
reset,357.531,0.051170613812023515,-0.02577597637898543,9.74303423518379,0.0023750376757275837,0.0012545000924246929,-0.00028628362877225846,-2.566438712924521e-11
reset,357.54,0.009422515651012113,0.028551430664223904,9.834027868863,-0.000911260940151466,-0.0024489359371210858,-0.002351326567460825,-2.5664392220582704e-11
reset,357.552,0.023815283149397848,-0.04631289833692061,9.759585323910741,0.0005605739189228668,0.0015055261802097118,-0.0008938659898822253,-2.5664398559183808e-11
reset,357.561,-0.07668866052773979,-0.01160688980025763,9.772800694150861,-0.0005677269605245841,-0.0006424552390661998,-0.0024311473452610765,-2.566440298771254e-11
reset,357.57,-0.01148921441522495,0.029528967474940198,9.811555092916842,0.0020808529202690908,0.00012084543261094061,0.003397906918039264,-2.5664407147674936e-11
reset,357.582,-0.02543706012488508,0.014011781067435657,9.80363784021282,-0.000914601295855099,1.3599002172766466e-05,0.002241160666953354,-2.566441228515459e-11
reset,357.591,0.03756280500987142,0.07243971874191732,9.781726530429031,0.0011176889695062987,0.00033741650054125525,-0.0015101415641284761,-2.5664415840369582e-11
reset,357.6,0.014145411087788221,0.007315703973949538,9.829394783760232,-0.00025831356573482604,0.00039470096091419045,-0.00020593737670986448,-2.5664419150493292e-11
reset,357.612,-0.042217470572076504,-0.00821282405022232,9.804313050729123,0.0014060328557962962,0.0001414047785432765,0.0013281483239609136,-2.5664423194702308e-11
reset,357.621,0.01574581616904059,-0.039503613077728636,9.781899571041729,-0.0009579039091045888,-0.0008034311758486031,0.0005038953264697472,-2.5664425959473017e-11
reset,357.63,0.027476041930944665,-0.04257349810105446,9.863411025643297,-0.004337765604828037,0.0022078965422461455,-0.004424723886554433,-2.5664428501617835e-11
reset,357.642,-0.025583531967226167,-0.0026667502129833574,9.814312975979991,-0.0019509996271039073,0.00019994840313317642,-0.0034658367902741295,-2.5664431559491173e-11
reset,357.651,-0.003320598775809036,0.035568017692242236,9.78651633430223,0.0006856296945412733,0.0006807614731838532,0.000470414142122082,-2.5664433605114915e-11
reset,357.66,0.03426383050239117,0.08376541396296198,9.784216603115489,-0.0014051385593560723,-0.000743888922080766,0.002187020507923574,-2.5664435449517962e-11
reset,357.672,-0.0606053185226269,0.055511703182909856,9.791385467030091,-0.0004508649149158331,0.0007184412314104646,0.00177473655093147,-2.566443760444373e-11
reset,357.681,0.020285384441911372,-0.0005787415354065542,9.81516816579891,0.0015496351334467855,0.0038121761922430375,0.0011327783639967614,-2.566443900323487e-11
reset,357.69,0.014554300259926798,-0.04264511184876548,9.81290871970137,-0.002391885704545016,0.0007832661694212151,-0.0014772035691811105,-2.566444021891772e-11
reset,357.702,-0.047944490923697666,-0.06625870475874204,9.794959382198735,0.0016045088328525447,-0.001360321295613237,0.0010290763956975083,-2.5664441558446133e-11
reset,357.711,0.03480588264709655,0.03738967569550294,9.880664997783345,0.0007632914977496532,0.00044534565746463627,0.001425717609120542,-2.566444236448569e-11
reset,357.72,-0.021421481266999536,-0.016959453960690957,9.777922335145092,-0.0011818865750913394,0.0008171749599807695,-0.002264210893337674,-2.5664443003280454e-11
reset,357.732,0.0044171376220661146,0.017046715119580516,9.828120207989006,0.002050654817414674,0.0014246069112949752,-0.0015926021142102982,-2.5664443605581923e-11
reset,357.741,0.017096184928990725,0.02018161418604027,9.791041981556498,0.001384233286275136,-0.003200474280007821,-0.0018441147004229091,-2.5664443879817838e-11
reset,357.75,-0.003216305657818323,0.02429794334646119,9.779129143030113,0.0008471687997117996,-0.0017375566077544482,0.0035311340008541705,-2.5664443999103793e-11
reset,357.762,0.004563808943645467,0.05759088812106905,9.866206988016671,0.00044784166466315745,0.0008123863280984517,2.707882305851783e-05,-2.5664443933642355e-11
reset,357.771,0.03239212100539937,-0.00717740086944006,9.778349165834651,-0.002880370997657842,-0.000954248411465526,-0.0005018028751795133,-2.5664443718602667e-11
reset,357.78,0.007412253575154553,-0.0024493571910651313,9.781353991118548,-0.002851439843379898,0.002234411907147028,0.0009166712466245592,-2.566444337055633e-11
reset,357.792,-0.008859959006326544,0.012048065997052817,9.773673337905228,0.002042157345418422,-0.0016109128017521188,-0.0033432518917465965,-2.566444270483648e-11
reset,357.801,-0.025945161758341644,-0.019830617485086795,9.850448463191048,-0.00036947426566846087,8.71490529914169e-05,0.0019139582890306715,-2.5664442054899483e-11
reset,357.81,-0.008646273242562983,-0.03163020374957487,9.773474070699951,0.0007676088531675474,-0.0008856602541337792,0.0029962190050241053,-2.5664441286773472e-11
reset,357.822,0.024747303913841702,-0.001113194032112696,9.757917182706528,0.002464321878716726,0.005414358786121982,-0.0004461974581517124,-2.566444006693269e-11
reset,357.831,0.04312659330072801,-0.016426715744944555,9.843044250526697,0.003390836709818239,-0.000621959136087473,-0.0005910712484624934,-2.566443901700063e-11
reset,357.84,-0.02363579109608926,-0.011000977378521607,9.774605437192806,-0.0048367420092403106,0.0004489468524346523,-0.0026349168458908233,-2.566443785948164e-11
reset,357.852,-0.03663973022036896,0.010275974363866075,9.793195646855905,-0.0007332286920358486,0.0005353752462866087,-0.0001744594881724267,-2.5664436147529226e-11
reset,357.861,0.04225535765013689,0.023527209818407793,9.825849815509805,-0.0007426040811211485,-0.0024414755730235117,-0.00024004682130511707,-2.566443473991736e-11
reset,357.87,0.005622632100137873,-0.0148559143199968,9.786868072618727,0.0004317605424558646,-0.0009071237615823156,0.004179288911486368,-2.566443323428035e-11
reset,357.882,0.017492753244603212,-0.00034549299178884704,9.772363512300522,-0.0010776941289528303,0.0011225984149210572,0.0013472430893716693,-2.5664431073018497e-11
reset,357.891,0.037374408606239196,0.0656012815851888,9.824202818159014,0.0009674347306083664,-0.000361827704685121,-0.002134675704701332,-2.566442934587586e-11
reset,357.9,0.006112367128153622,0.03038123861253768,9.805116398535537,0.0010573822653619678,0.0009773286507506382,0.0005295675788399315,-2.5664427523010696e-11
reset,357.912,0.006535786723886012,0.04752304266166622,9.840252343494138,-0.0009380927578724906,0.0018691423779844613,-0.0002365068022333653,-2.566442495564617e-11
reset,357.921,-0.01258576323969275,0.019912468369054217,9.822522605944878,0.0006813510611663157,0.0025569983831695655,0.0005040166035696862,-2.5664422931091637e-11
reset,357.93,-0.005999313093528983,0.007082770277307969,9.76233430598174,0.0029062348332207478,-0.0006011380031362028,-0.0011635268316339115,-2.566442082324407e-11
reset,357.942,-0.006218119596352727,-0.0013927687826056805,9.766046424386102,0.0007858145314720672,-0.0019657606512072487,0.0023230168478719088,-2.566441789123297e-11
reset,357.951,0.01503767282235299,-0.021557083838252743,9.818445985121953,-0.00012625268305231006,-0.0008984311321437419,0.0006357789771198303,-2.5664415600976356e-11
reset,357.96,0.015606207317776991,0.023346385438089708,9.809543418360434,0.002770497581278885,0.0024839959059218724,-0.0017987606341553115,-2.5664413230613237e-11
reset,357.972,0.027015926894982733,-0.03074460435448856,9.81421456460508,0.0012226616473174716,0.0014738542992113694,0.0019514143471883853,-2.566440996455999e-11
reset,357.981,0.007288724043164236,-0.005358139186772955,9.776878820981533,-0.0021681635493104477,-0.0012107112388583116,-0.0035885669412566955,-2.5664407434527058e-11
reset,357.99,-0.009615616779973012,0.016559912911278653,9.790177870848972,-0.0011778654370324451,-0.0018697933205613897,-0.001318093513066283,-2.5664404834615778e-11
reset,358.002,-0.05095337214245721,-0.02412532754084739,9.826272965384323,0.0007001334630499824,0.0018930111529731636,-0.002464457247851721,-2.5664401268621436e-11
reset,358.011,-0.005836786520489538,-0.03143774491978893,9.823007875059396,0.0010003591478137527,0.0031452557823504475,0.0013097757682224338,-2.5664398518321926e-11
reset,358.02,0.048758991336323346,-0.03618751137814843,9.778676645274656,-0.0012732908843777304,0.0022827763418731676,0.001268372171945551,-2.5664395705233103e-11
reset,358.032,0.01681051684857847,-0.0453682303686187,9.850001138074521,-3.43361795534342e-05,0.0008288043001505512,-0.002952415690664644,-2.566439186650829e-11
reset,358.041,-0.01078133426036209,0.045730270650528655,9.798887712596539,-0.0004208594286091441,-0.0011142983476635762,-0.00037221426722565263,-2.5664388919493644e-11
reset,358.05,0.003693660636341411,-0.03590569953037758,9.795782106046392,-0.001769726482718527,0.00108232280816334,-5.4461119566072123e-05,-2.5664385916150928e-11
reset,358.062,0.057746835489456534,-0.06388478201542509,9.782496178903168,-0.0008632679574986246,-0.00014753282267312328,0.0015882751481040435,-2.56643818280247e-11
reset,358.071,0.0015989453434764628,-0.03017257408290035,9.79406638753181,-0.003913198139584665,-0.0021235565188829544,-3.4734482522599855e-05,-2.5664378700593408e-11
reset,358.08,-0.007567098813154221,0.012259396281544592,9.791276651401525,-0.002465245688676661,-0.00017910991797363978,-0.00034861320465043327,-2.5664375526194206e-11
reset,358.092,-0.03769613586400512,0.036884692770699855,9.758717054493987,0.0013551512853121385,-0.00020843436230246832,0.003300123476237273,-2.5664371218748974e-11
reset,358.101,0.001845456015893604,0.02368133285338984,9.76602976225886,-0.0026512375406531753,0.001984066579308473,-0.0018773060846532625,-2.5664367931005592e-11
reset,358.11,-0.002726153958291948,-0.04333422997592262,9.827958348287773,-0.00020987696867237878,-0.0009127408670621692,0.0008994708396264751,-2.5664364601781544e-11
reset,358.122,-0.016273245152761986,-0.0029236297985847375,9.826702550084221,0.000204679218075084,0.00025030636022889386,0.0004287280614658433,-2.566436009273667e-11
reset,358.131,0.007843976735997817,0.01135034390281888,9.742222972804443,-0.000218308006208475,-0.00038493896207303884,0.001081938630900294,-2.5664356659222697e-11
reset,358.14,0.020610722340170397,0.011643445738376156,9.792388225479622,0.0021658939188434383,0.000898564679767646,-0.0007652844892978786,-2.5664353184731316e-11
reset,358.152,0.014654665827790216,0.055176358488566196,9.788804882164232,0.003051603901916943,-0.0015076774834212542,-0.001120395503274694,-2.5664348487811653e-11
reset,358.161,0.026547461560496345,0.01860136287524974,9.794071758661309,-0.0009340473874682234,0.0028389649454163167,-0.0015407794902043035,-2.5664344921621822e-11
reset,358.17,0.04053075285976447,0.02866685741026658,9.82489064086607,0.002820025365211877,0.0015267072860167292,0.004216688393555763,-2.5664341319918396e-11
reset,358.182,0.004472517039681269,-0.014691285959311896,9.799086950612788,-0.0005415018484825978,0.00013146059511367705,-0.001340331224200907,-2.5664336461290607e-11
reset,358.191,0.028816990055417255,0.05672817399695937,9.772113806406995,-0.00012626810904875767,0.002714363381222038,-0.0009884153598858963,-2.5664332776085257e-11
reset,358.2,-0.005757539251906179,-0.031182074964215982,9.799879808321752,0.003950320832526278,-0.0010709542906547926,-0.004203238482186981,-2.5664329057195148e-11
reset,358.212,-0.04765025438892719,0.05547329700752418,9.802355197208591,-0.00157251286543659,0.002113487701195366,-0.0023224179941961653,-2.566432404976969e-11
reset,358.221,0.011853961538058887,0.03620337072013758,9.826424762643526,-0.0009377344544367868,0.005221924738742907,-0.001772458585667925,-2.56643202528442e-11
reset,358.23,-0.01805986553712354,0.017842769244156398,9.808651334814646,0.001649814546539498,-0.0010470363650660814,0.0012089455906839543,-2.566431643095362e-11
reset,358.242,0.0006040597662298946,0.011432961740959103,9.781340142200317,0.004964487454730775,0.002461972816301844,0.0030317664680011127,-2.5664311286058177e-11
reset,358.251,0.01670563319118607,-0.021912920643403173,9.800475380487342,-0.0011082597064586037,-0.0021033427356575906,0.0005998227972872854,-2.5664307394957123e-11
reset,358.26,0.031129710820201956,0.04037508433785931,9.779599118509388,0.001323676884905538,-0.0005680493782598047,0.0026261095968970393,-2.5664303477678038e-11
reset,358.272,0.008157448728852065,-0.021886971689230036,9.8187977252054,0.0025472893261745265,-0.0022352826178842484,-0.0001713252722027791,-2.566429821235862e-11
reset,358.281,-0.0279784594356027,0.000858513636223476,9.742523124165764,-0.0016165793961217456,-0.001402089600505924,-1.5359506284528352e-05,-2.5664294233244262e-11
reset,358.29,-0.010542864429897133,-0.0800158139788141,9.767345091395217,0.003012330601592383,0.0025580283502490684,-0.0021205087298672475,-2.5664290227249194e-11
reset,358.302,-0.019855198987858206,0.03272254421759794,9.85855894405878,0.004364879572774135,0.0011061848059442663,0.0031116397990338693,-2.5664284850480833e-11
reset,358.311,-0.03656849278249187,-0.015400086741959,9.803293573652649,0.0005092377925374385,-0.001006849678970765,-0.0014854877560567937,-2.5664280792476813e-11
reset,358.32,-0.053919575399224554,-0.006947459184351658,9.793517169363593,0.0009367821605596192,-0.0033100498234795513,-0.002765507611382818,-2.5664276714166543e-11
reset,358.332,-0.01932147743745492,-0.07575770378331102,9.878609083220624,0.0024188867659959276,0.0015102877163061467,-0.0006927959268413133,-2.566427123310124e-11
reset,358.341,-0.01828695760118859,0.0192341676176121,9.770423983801097,-0.0024241156728614342,0.0006184761892879285,0.0005670111264991544,-2.5664267098623103e-11
reset,358.35,-0.013319592082023626,-0.005352665829185285,9.854954162843287,0.0026266918207168933,-0.001114831493199675,0.0009011709263660933,-2.5664262941875602e-11
reset,358.362,0.011748239797651907,-0.04236526304265755,9.822127992529323,0.0035230888954707086,0.0024930720410793698,-0.0007732890868277741,-2.5664257375789464e-11
reset,358.371,-0.045291490693190016,0.004796814708455616,9.82313638199341,0.0002486610335836405,-0.000848153256477256,-0.001969834407262024,-2.5664253176088213e-11
reset,358.38,0.0462649262949811,0.0379047573706068,9.783398151593971,-0.0020960509422058658,0.0022112056019513767,-0.0012951236479647687,-2.566424896165193e-11
reset,358.392,-0.0014438370847037376,0.01331608597403918,9.832002123161818,-0.0028580745398036427,-0.00042910283889975766,-0.00019649014804957822,-2.5664243313923765e-11
reset,358.401,0.01998011665751483,0.01530375757900391,9.797451305171709,0.001828084798516293,-0.004119221763732861,-0.002800910350998626,-2.5664239057606137e-11
reset,358.41,0.00031459966051899436,0.013821306711829105,9.834863131012227,-0.0010068140890009706,0.0030048545554079275,0.003743727136110361,-2.5664234785591096e-11
reset,358.422,0.053477294190336595,0.015473735211138937,9.809099979757693,0.0006386146760819062,-0.002700465159475464,0.0027097414857463957,-2.5664229064049e-11
reset,358.431,-0.002246426804828264,-0.016271567158878668,9.792152839921629,-0.0019239050882317239,0.002224679131437565,-0.001527082868116197,-2.5664224750939205e-11
reset,358.44,0.018557613077749953,0.025075301379770727,9.781832410508933,0.0017527732373487405,0.0029135903358920487,0.00045651353038134255,-2.5664220429163343e-11
reset,358.452,0.03530252563105508,-0.01471841703574572,9.753949592761577,0.0010813092651342205,-0.0007392171661198194,-0.0014333650730691922,-2.5664214637725315e-11
reset,358.461,-0.028076865475224533,-0.008397342209499002,9.86132426157584,-0.005232842167269638,-0.0012337752068741913,-0.0015166777514781975,-2.5664210279735315e-11
reset,358.47,-0.00758755912536149,0.031119546032542366,9.751454212900308,0.0009370753660520474,-0.0001107767639078699,-0.001220447454976377,-2.5664205907698082e-11
reset,358.482,0.02929389095159408,-0.029426109320446252,9.785826300047757,-0.0003045973566862704,0.0026298250491950527,-0.0017795852854401823,-2.5664200060162022e-11
reset,358.491,-0.02603992373812511,0.004469215718887526,9.807249898433621,0.002148720312560233,0.0009460710637821822,-0.0003248887597933043,-2.566419565685755e-11
reset,358.5,-0.00598502442225883,-0.014639951733551426,9.806907519537754,-0.0016439257544647325,-0.0024533316034664344,0.0023346398332163188,-2.566419124100548e-11
forward_1,358.512,0.011762116513340602,0.011628073386040662,9.801058223192513,0.0012267681133493846,0.002772224906401908,0.0012668839127642328,-2.5664185337917424e-11
forward_1,358.521,-0.0002887727063543992,-0.004823709712696949,9.82127324056972,0.0016142088962524071,-0.0009516827259348231,-0.0010866471100006128,-2.566418089606258e-11
forward_1,358.53,-0.007731670075474985,-0.014347983245918535,9.848606592449851,-0.0028363823077507907,0.00730776203875929,0.0012342457404869965,-2.5664176441982042e-11
forward_1,358.542,-0.0024414803397593055,-0.016808908989615273,9.855437520520676,0.003006508060745317,-0.0014306679071117573,-0.0011339238729108922,-2.5664170483929534e-11
forward_1,358.551,0.01518870873035091,0.011748375384822025,9.810059893138467,0.005574956868795795,-0.0032158024325795492,0.0012127737706831823,-2.5664165999989126e-11
forward_1,358.56,0.0016093037481355384,0.012231420510627235,9.838327549674627,-0.0007253656574232331,-0.0004695631211572674,-0.0016650356774648711,-2.566416150759387e-11
forward_1,358.572,0.06431757606965209,-0.050351849227934065,9.776536545313173,0.0011429687541210111,0.0014950547509559543,0.0021682828332616993,-2.5664155500690663e-11
forward_1,358.581,-0.029821751794501163,-0.004711827276836207,9.780443790076115,-0.0011065913383374365,-0.00012190674652017296,0.0019840082206135537,-2.5664150984356558e-11
forward_1,358.59,0.005393509644667896,-0.0005145565634483271,9.82584528136325,-0.0022616437264951572,-0.0007749603758455461,-0.002538531461565293,-2.5664146462330047e-11
forward_1,358.602,-0.009730566983026077,0.02368862895836589,9.801779508547746,3.986638047401895e-05,0.0007276858886114025,-0.0039135955464316505,-2.5664140420314326e-11
forward_1,358.611,-0.0016639313550040127,0.038071465735323905,9.87199844865949,-0.0015172384951166458,-0.0017824471453936018,-0.0023324510268967406,-2.5664135876318706e-11
forward_1,358.62,-0.02072009666478538,0.04005502383475234,9.77837026472762,-0.0007563149581036285,-0.0003848277465530121,0.0010305486977860063,-2.5664131323124327e-11
forward_1,358.632,0.050552897415195766,-0.019221720403287512,9.8465847259923,-0.001022064637127135,9.265050504225973e-06,-0.0008747608741075829,-2.566412524021599e-11
forward_1,358.641,-0.015119202727174047,-0.04862624060276836,9.837715227970465,0.0024476231899238942,-0.0014633071669296486,0.002310007692853324,-2.5664120668062213e-11
forward_1,358.65,0.014050140211683562,-0.04606089765038485,9.799584126744572,0.0033265649313018292,0.005421596244240982,0.001761250480407515,-2.566411608700535e-11
forward_1,358.662,-0.03474245825318888,0.019005963420872678,9.782584124720278,0.0002831187572444281,0.0008624049593391665,0.0004196103552282562,-2.5664109971833743e-11
forward_1,358.671,0.0230177948817885,0.014577878897268935,9.791721835913407,-0.0003964896632871192,-0.0029419320003271692,0.003373848042656926,-2.5664105379820005e-11
forward_1,358.68,-0.010619031394997522,0.06435655839709191,9.790104912077759,0.004530514701631439,0.0009432450328666593,0.0029842266138553463,-2.5664100778915923e-11
forward_1,358.692,-0.03038671572950304,0.02845020481715736,9.834115085173982,0.00038154585130815223,-0.0031629034942998436,0.0011863472743526746,-2.566409463556701e-11
forward_1,358.701,0.012831819547618443,-0.037282358551262954,9.811633114392487,0.0008471597086971498,0.0011749820861860023,0.0026613832443713233,-2.56640900178496e-11
forward_1,358.71,0.06815263686912275,0.012858755848085943,9.767562594632814,-0.0005160139439273534,0.0021575991621190465,2.0676610827767998e-05,-2.566408539854241e-11
forward_1,358.722,0.002657593395432724,-0.001116052148212011,9.792107126442527,-4.9473561527248384e-05,-0.0020888600282249837,-0.0024276470102279134,-2.5664079228364635e-11
forward_1,358.731,-0.07088560167225037,0.012744094094732879,9.873095829919569,-0.0038236960788552367,-0.0016911113445729406,-0.0030732571571146935,-2.566407459426967e-11
forward_1,358.74,0.003450481686100993,0.008906964352850882,9.783286522815818,-0.0006195878685611441,0.0031089088750923806,-0.003296609096680812,-2.566406995715163e-11
forward_1,358.752,-0.07807787754602905,0.007412674203510008,9.78656612400951,0.002044839110864297,0.0023281194066878254,0.0024217992206324447,-2.5664063761901947e-11
forward_1,358.761,0.03333071215428653,-0.04545286664960694,9.78401898490308,-0.0015253416405450733,0.004219400823975725,0.0015779014583330432,-2.5664059106556717e-11
forward_1,358.77,0.017407024386087676,0.04678424985493619,9.780376045115275,0.0006575546031321879,-0.0025111935816274976,-0.0016529199654627242,-2.5664054447961153e-11
forward_1,358.782,0.014271741628245495,0.007785068067668031,9.822933508647129,-0.0021675090908011858,0.0034288597422935255,0.002193598625915128,-2.5664048229522667e-11
forward_1,358.791,-0.022536255337901368,0.0269599074424208,9.7998994676292,0.0005547353696793792,-0.0014266106462591137,-0.0033088194471251097,-2.566404356056033e-11
forward_1,358.8,0.0680021463554768,0.04307175648086028,9.803125150923501,0.0013762119407537273,-0.0016230131285241856,-0.0010848229384419464,-2.5664038890338227e-11
forward_1,358.812,-0.03393308701432105,-0.010099905401972515,9.826227235903694,0.0021561618275977965,0.003205272842258595,-0.0016697275663828033,-2.5664032654515484e-11
forward_1,358.821,-0.003223656145448615,0.03019182682393863,9.813770559218023,0.005847734130715855,-0.001029674966554311,-0.001449775990568905,-2.5664027969511965e-11
forward_1,358.83,0.03860642714866745,0.014137154070874182,9.836531690665272,-0.0002220318640079653,0.0015865597009128102,-0.003226467239791275,-2.5664023283920046e-11
forward_1,358.842,-0.018424934063531247,0.024162094538333075,9.78236586587234,-0.006142088422064308,-0.00024435751295877334,-0.00015460620483023521,-2.5664017024780002e-11
forward_1,358.851,0.027638564311014743,-0.003309988472181817,9.837701666885993,0.0010147298402157516,-0.0013177129620420775,0.0007168791688982206,-2.5664012329508897e-11
forward_1,358.86,0.01871427840535035,0.028516016138490176,9.84926276918019,0.002433297611978227,0.0012729024141338204,0.0011344406655744922,-2.5664007629784504e-11
forward_1,358.872,0.01219285876100434,0.00452234428420875,9.754445882668103,-0.0010752155836311304,0.0024248179742250965,0.0013524771544889212,-2.5664001355687736e-11
forward_1,358.881,0.07396029043552332,-0.028779064501688212,9.75405101146434,0.002804002327905914,-0.0007112198430991703,-0.00085062765442983,-2.5663996645868837e-11
forward_1,358.89,-0.04590582967321595,0.006336140949539572,9.77750732169449,-0.0015339024029771297,0.003990632052232097,-0.0009257467761310327,-2.5663991932291925e-11
forward_1,358.902,-0.03642993999632586,-0.0555048367407273,9.820032983624952,-0.0002574796006138373,-0.0007883194706164819,-0.004911282875735438,-2.5663985644860598e-11
forward_1,358.911,0.0012450041734635075,0.05989935683385484,9.799313696780171,-0.0015078446345012041,0.002121265291489288,0.000513821522364263,-2.5663980926876874e-11
forward_1,358.92,0.08643392974460148,0.019105101046768786,9.832049218239153,-0.0007632069468961628,0.0007573405356914412,-0.0006913121367215477,-2.5663976203847184e-11
forward_1,358.932,0.0019353561601894618,-0.0031033936310935787,9.766448559991316,0.0011843168886275437,0.00031926068819682595,0.0011074954867257127,-2.566396990157521e-11
forward_1,358.941,-0.05616651921536072,0.018306015092112653,9.773102876604375,-0.0026999028771860886,-0.0007261632657179353,-0.001389048425531907,-2.5663965174444016e-11
forward_1,358.95,0.003001838171197203,-0.021986305240745005,9.841537975947999,0.00386482676746704,0.0010883612203687755,0.0018653992740503503,-2.5663960442547428e-11
forward_1,358.962,0.01585034439023622,0.0437302895967906,9.797654032221594,-0.0006201083770378459,6.961078150608784e-05,8.992692711685862e-05,-2.566395413029446e-11
forward_1,358.971,0.021259197848253093,-0.046275898154587124,9.806132944718184,-0.0008312038496613271,-0.0022006778578249706,0.0014920178362677096,-2.5663949389689675e-11
forward_1,358.98,0.04471397648092609,-0.02142696126670268,9.752542017045908,0.0015086970652109218,0.0007066878265429752,0.0022446137839479347,-2.5663944649084294e-11
forward_1,358.992,0.035543691734211666,0.03283808954764886,9.860464836305258,0.0005181534467052299,-0.0023498722204455505,0.0017230630737120076,-2.5663938324502392e-11
forward_1,359.001,-0.04543250521711904,0.0037924294069321286,9.803543243059886,-0.0011562560860429085,-0.0021139321921191108,9.930927956536703e-05,-2.5663933578312485e-11
forward_1,359.01,0.01041733046198035,9.833472851318603e-05,9.822571724382207,0.000810861596077202,0.0008851722125923493,0.00012816204065538853,-2.5663928830186656e-11
forward_1,359.022,0.034496430228518705,0.05358266164111746,9.794711491331116,-0.0011803695573891788,3.226189667301297e-05,0.001947171898818401,-2.5663922496017417e-11
forward_1,359.031,0.011137893218966034,-0.0028965297860812753,9.785841692030095,0.001892376717177842,0.00199218244858143,-0.0009319155793100202,-2.5663917743687865e-11
forward_1,359.04,0.0025722312440995066,0.02819901058832347,9.77393405597327,-5.8311883296516385e-05,-0.0010679914613847365,0.0036906617620003756,-2.5663912985516893e-11
forward_1,359.052,-0.023589876287026308,-0.02170297092880773,9.792498448432683,-0.0014783730121764658,-0.0006508198737362081,-0.0011402946215928408,-2.566390664401553e-11
forward_1,359.061,-0.05113504299286447,0.02816913002358223,9.791500146561866,-0.00047887934662082913,0.0023368391229612244,0.001257401541915355,-2.5663901879327127e-11
forward_1,359.07,0.01442439585832111,0.0022260443393825524,9.816927864637675,-0.0006717504722333593,-0.0013771734279661026,0.0029149111905218787,-2.566389711475401e-11
forward_1,359.082,-0.008032996816609246,0.014048184194649729,9.796044780257663,0.0019184969791864043,0.0013066469877431053,0.00381944379807741,-2.5663890762664333e-11
forward_1,359.091,-0.007159280699231502,-0.03653573513808731,9.767475991566092,-0.0031886028673206975,-0.002106043624015908,0.001094116251827138,-2.5663885994601683e-11
forward_1,359.1,-0.01327152182477466,-0.008210948283261221,9.880923958611326,-0.0012666424268646934,0.001521785641964512,-0.0017931612321143576,-2.566388122543884e-11
forward_1,359.112,-0.014700858452584066,-0.016884979403270006,9.791538245669383,-0.0008593515409088184,-0.0033914692669307794,-0.00019803463160692375,-2.5663874864283442e-11
forward_1,359.121,0.003097306291132575,0.015966234756308366,9.81852836748745,0.00434100067760954,-0.0003228237138862974,-0.0010037515668689504,-2.5663870088319538e-11
forward_1,359.13,-0.0019715979046239095,0.029963579825018672,9.843831313640667,-0.00041290481897857914,0.001380278627630505,-0.0017826824707113929,-2.566386531459958e-11
forward_1,359.142,-0.023080374443939775,-0.022927902358417632,9.81290101069384,-0.0002737117930341565,-0.0017454556343585261,2.094915598791331e-05,-2.5663858947325452e-11
forward_1,359.151,-0.0048705395053162855,-0.03367480276627229,9.80571013667264,0.0021931356299866216,-0.00045032844259071115,-0.0011303816779719908,-2.566385417024622e-11
forward_1,359.16,-0.016718595347205826,-0.054738331991998956,9.783731885697527,-0.0007735866207560081,-0.001052089497895912,-0.001093573207147702,-2.566384939133228e-11
forward_1,359.172,-0.015235307399719199,0.021519673923602392,9.826002958523661,-0.002342547932854165,-0.0012722360642339844,0.0002330830290106975,-2.5663843017470168e-11
forward_1,359.181,0.007114322600329922,-0.018613280346763537,9.774219934113585,0.0019794560673514834,-0.003145667943084796,0.00043879644927931295,-2.5663838234617535e-11
forward_1,359.19,0.03935503552645185,-0.004989377453440903,9.71881558374046,0.000786218114416693,-0.0015717808990759073,-0.0036394987942450713,-2.566383345238886e-11
forward_1,359.202,-0.017188148706350537,-0.03278413063118176,9.832431773217888,-0.001799559614374736,0.00018677467477986755,0.002083097382387593,-2.5663827069661624e-11
forward_1,359.211,0.0295743285971482,-0.03997026607414163,9.793323499647734,0.0009412005686512884,-0.0006682007636532216,-0.0009445775152596087,-2.566382228518374e-11
forward_1,359.22,0.028225990332591742,0.029390564175340823,9.79242437406614,-0.002951221915508966,-0.0005379954426511271,0.0022691510319803303,-2.5663817496548167e-11
forward_1,359.232,0.013486320144980274,0.0059554058004686345,9.82366257587072,0.0012070937939936326,0.0012345896187716636,0.0024857790601238144,-2.566381111587223e-11
forward_1,359.241,0.0002094697839865264,-0.02920127365949023,9.81982133812039,-0.0029067681194535947,-0.0005399111790409133,-0.0012029604538105448,-2.5663806330602062e-11
forward_1,359.25,0.006773034588965828,0.025447709554815446,9.779159472621085,0.00112302355450752,-0.0001337669231481863,0.001592316104603455,-2.566380154418396e-11
forward_1,359.262,0.009066482025776123,-0.013401438164650836,9.777575452553984,0.0031587065311178397,0.0031931892739270502,-0.0006576256707012005,-2.5663795157743774e-11
forward_1,359.271,0.0012631540759373379,0.03125315640635305,9.754595326332286,-0.000683690637853471,-0.0015655365371202551,0.0016368376723802913,-2.5663790365983095e-11
forward_1,359.28,-0.0010426246112490477,0.015905390306203873,9.770167914029994,-0.0016964982450959284,0.00203026790985179,-7.062002378533786e-05,-2.5663785573702522e-11
forward_1,359.292,-0.019470110866219744,0.0542175661783919,9.79626122737304,-0.00011060973032729839,0.0010574299847373523,0.000740438957577891,-2.5663779181200827e-11
forward_1,359.301,-0.05367053176950282,0.051296632997335584,9.79542709192655,0.0009767622114394945,-0.0005528505621720796,0.005957116842213215,-2.5663774385581854e-11
forward_1,359.31,-0.03411496238674002,-0.017180298929473422,9.814569120393,0.001278839256389245,-0.0015197717919177413,-0.0013039720806703305,-2.566376959090829e-11
forward_1,359.322,-0.010903054917758842,-0.0002809054794145167,9.77628362697549,-0.000992339231243299,-0.0012168803035153015,-0.0018620845160137898,-2.5663763197555758e-11
forward_1,359.331,-0.0019463904677003475,0.006951278916117357,9.803631972528416,0.0022165260893219066,-0.0058768607536967745,0.0014998627594237648,-2.5663758403688647e-11
forward_1,359.34,0.043098872497874224,0.0088247338632196,9.802024032567754,0.0021377670201455637,0.001617342346897116,0.001304732804063995,-2.566375360819152e-11
forward_1,359.352,-0.026613881557748128,-0.00999467540090049,9.813546701020668,-0.0005301566988916037,-0.0002801473253866349,-0.0008702913554014649,-2.5663747208607654e-11
forward_1,359.361,-0.019373825927936572,0.0469966967684759,9.838204384421804,0.0019682242656938716,-0.00038089338703183896,0.0004047993812564221,-2.5663742409389822e-11
forward_1,359.37,-0.025075025960473663,0.002871312109243982,9.788892287631992,-0.0029217950313766136,-0.00025154738249183814,-0.0025521347892072167,-2.5663737610224218e-11
forward_1,359.382,-0.03369779585947144,-0.032045760148961114,9.794736122334438,0.002593147068661397,0.00010849235151777006,-0.002171288427772066,-2.5663731208070608e-11
forward_1,359.391,-0.011678257217889981,0.033085031341924094,9.790284794565745,0.00037843396451678145,-0.001543842468434001,0.002464363580252236,-2.5663726404039176e-11
forward_1,359.4,0.026273416826787035,-0.01627788891588833,9.827345427771512,0.00047471696180097396,-0.0010603336215980511,-0.0007219782801198189,-2.566372160186143e-11
forward_1,359.412,-0.00024503011901547725,0.018496857377360326,9.833628714419097,0.003999124529301721,-0.004175257036247733,0.00015129593896059249,-2.566371519293587e-11
forward_1,359.421,-0.019217719102076227,-0.0015769412254366736,9.821341080956747,0.0019073696160686086,-0.0012551238537863618,-0.003220859713053223,-2.5663710387380954e-11
forward_1,359.43,-0.04795423916919917,0.028211743320819622,9.799030954862006,-0.0003846348856550184,-0.001373795877016812,-0.0016335174054990759,-2.5663705583172363e-11
forward_1,359.442,-0.037326479538670236,-0.040754459351605925,9.792110790233943,-0.0008055531470527325,-0.0011793454110214528,-0.00022734776811495926,-2.5663699173845387e-11
forward_1,359.451,-0.012868561526463927,-0.013239107978171245,9.771303331808275,-0.0006817362130399939,-0.001163207007037183,-0.0010631725717771346,-2.566369436648998e-11
forward_1,359.46,-0.007078239882552837,-0.011289880233542667,9.779336228106338,0.0005279247417067712,0.0013008503011510734,-0.0011854430806061617,-2.5663689559007083e-11
forward_1,359.472,0.035911939540450646,0.0002947023555375947,9.828414322133192,-0.0030508607510497457,-0.005607712532966975,0.0009851792215360426,-2.5663683150186578e-11
forward_1,359.481,-0.006341173843055684,-0.019544809506230665,9.795879295912366,0.0003243546958879834,0.001768331721438692,0.0017843551428701194,-2.5663678342442833e-11
forward_1,359.49,-0.0472928460483146,-0.0014473328829632934,9.792404054751982,-0.001669101437397666,-0.0019305655398956937,0.0024471549084411084,-2.5663673533190444e-11
forward_1,359.502,-0.038829726064153525,0.017723165605622614,9.772013941970755,0.0033884903963916795,-0.0021103592601555425,-0.0008173455622731654,-2.5663667117975454e-11
forward_1,359.511,0.00515891599947489,-0.04267909632838368,9.850697837563931,0.0007829657591407916,-0.004447555714942587,0.0005766050908032478,-2.566366231040486e-11
forward_1,359.52,0.34296695168833025,-0.009640590060636249,9.748134945644596,0.001749840403534093,0.0010653621880228952,0.00011530130550216591,-2.6166364354858683e-11
forward_1,359.532,0.3501677909197007,0.031958530629121844,9.786829515257422,0.001083101292918743,-0.0019164657016747222,0.001365754060912706,-2.6836662382198628e-11
forward_1,359.541,0.32556314264008157,0.008960889212868488,9.847756272556742,-0.0004184723013268662,-0.0007923224585028893,-0.001312147442851795,-2.733937760094752e-11
forward_1,359.55,0.35760141510375054,-0.015852784351290342,9.8749408838609,-0.004036810736507312,-0.0011127724661480962,-0.002704901113298589,-2.784208190482214e-11
forward_1,359.562,0.34756739445120505,0.008267944708855418,9.82812362347777,-0.0017108129526698006,-0.003263251890276388,-0.002708958899833907,-2.8512331384627267e-11
forward_1,359.571,0.3034249560224245,-0.00624733101541541,9.808244037272884,-0.0029039445171687296,0.003408915488142218,-0.002609108537614706,-2.9014996826323505e-11
forward_1,359.58,0.3298062996291311,-0.05252302194031579,9.791897645504319,-0.00032906076143972567,0.0015788853518058617,-0.002459078057515091,-2.951763971384469e-11
forward_1,359.592,0.36503796899057483,-0.008214175983473649,9.853931457129086,0.00029320651083473704,-0.0011004927832997515,-0.0018360081736641385,-3.0187788696143737e-11
forward_1,359.601,0.3232110031136572,-0.036159686621501874,9.842124219167271,-0.0021097349363852535,4.8599978800281935e-06,0.002318001653761227,-3.069036445153238e-11
forward_1,359.61,0.3787310234099089,0.008589985097456768,9.841910822291275,0.0011099283851701209,0.0004213812685103957,-0.0007664612820050074,-3.119290504917535e-11
forward_1,359.622,0.3447242909207294,-0.010575356223100968,9.773190757842432,0.0015947593401602967,0.00017887936899293132,-0.0014968513593249598,-3.1862897496609997e-11
forward_1,359.631,0.3138145724002738,-0.04178699683587417,9.825187752753882,0.002972325129844831,0.0013744725464430508,-0.0018147386930592478,-3.2365340262765494e-11
forward_1,359.64,0.37020537372624734,-0.028859343880277156,9.794730553715773,-0.00022727313597988976,-0.0038771969653275387,-0.0006922963527247359,-3.286773398411478e-11
forward_1,359.652,0.3432993368041958,-0.011375712134025303,9.859923170896973,0.001966510728810094,-0.0021407523634900355,-0.005650956270303626,-3.3537508407460016e-11
forward_1,359.661,0.34641615272213516,-0.0040266574853986365,9.73864449789968,-0.002682629335952517,-0.002553967345860844,-0.0023116430396538327,-3.4039770143353485e-11
forward_1,359.67,0.3705651667098609,0.044357345518489515,9.786601914952069,-0.000518403074927835,0.002001201286886836,-0.0010540714766318965,-3.45419674871068e-11
forward_1,359.682,0.333159048641845,0.02096357486511752,9.785302886688099,0.0018651194156850395,0.0022542816869434946,0.0007621956324823433,-3.521145478646088e-11
forward_1,359.691,0.33724606638057636,0.02710523186668136,9.789395817749444,-0.003750576957324668,0.0031963184912174145,0.0008108559092515758,-3.571348182174732e-11
forward_1,359.7,0.3313382466361034,-0.0014972376494644828,9.814935372032375,-0.0023681203154168194,-0.0028510041132877102,-0.0010180499593406488,-3.6215426976706874e-11
forward_1,359.712,0.3906748578888218,0.04589171032441962,9.71778694524886,0.0006794057942783122,-0.005546328797699699,0.0008788595954856561,-3.6884550162796844e-11
forward_1,359.721,0.3215973672454856,0.007697184990831815,9.817253689355347,-0.00040815964515279204,0.0015861575661486904,-0.001826549916856508,-3.738628227102672e-11
forward_1,359.73,0.3435183344280942,-0.05886360519640168,9.797685118253982,0.0025945582808837423,-0.0014060797276950364,0.0005330984145888481,-3.788791315904786e-11
forward_1,359.742,0.34485014292563043,0.015362171626739722,9.795832402975176,-0.0022303650227068483,0.002388511052997071,-0.0019823766969153554,-3.8556586053507264e-11
forward_1,359.751,0.35421168767183736,-0.0354142344924924,9.766080016918993,0.0011154583431135664,-0.00482953198438849,-0.0002147635423748428,-3.905795638701984e-11
forward_1,359.76,0.363706334997631,-0.038771244287717346,9.813660267308753,-0.001721237979303263,0.0003864474361731016,-0.0007854292264541524,-3.9559204200522006e-11
forward_1,359.772,0.3752132762425118,-0.04484641336219039,9.813733645816672,-0.003215210076327961,-0.0006274418903720095,-5.770492549580578e-05,-4.022733229130315e-11
forward_1,359.781,0.3358674318835428,-0.003698209814753014,9.828131514107815,0.0016369281044846052,0.004621796815164297,0.002902886572981679,-4.072826781034142e-11
forward_1,359.79,0.34292755194183355,0.028007194549952447,9.796194438201717,-0.0013035600523514062,0.0013316529627580963,-0.002253711273999726,-4.122905760557287e-11
forward_1,359.802,0.3888516564523144,-0.05403589420483383,9.79859442592714,0.001860981760642475,0.00028676387387597223,0.004860308620749134,-4.189653790042852e-11
forward_1,359.811,0.38536880681020347,-0.010704106911633163,9.790183690725108,0.00480676386629467,-0.0011442436915711002,-0.000331644814984187,-4.239695969103693e-11
forward_1,359.82,0.312168239787505,-0.016222926815978485,9.84695915075721,0.0028969405164600013,-0.0033279521258319446,-0.0029067613054280087,-4.289721128335981e-11
forward_1,359.832,0.29383729347636284,-0.040789170702701674,9.767690459832794,-0.0023078684958692214,0.000497322057679407,0.0007586315632827455,-4.356393633665762e-11
forward_1,359.841,0.37347597928113807,-0.07913284293447528,9.78499598902385,-0.0023258042602851917,0.0003467015059295821,-0.0018624087912100641,-4.406376256743125e-11
forward_1,359.85,0.355456175040336,0.014673817385373296,9.784664509073483,0.0001189333084118423,-0.0020563103927691874,0.0021107465378659034,-4.4563393729450683e-11
forward_1,359.862,0.4034704042605787,-0.028250948692703812,9.808123510227885,0.004026029318696677,-0.00026271687473096076,-0.002544788426232369,-4.522925228625805e-11
forward_1,359.871,0.39789319984366905,-0.0037770530051211243,9.830391637017264,-0.00368594929363872,0.0016576667283804637,-0.0017694327575832434,-4.572839980978383e-11
forward_1,359.88,0.3902452489661157,0.007788725846136761,9.789875630351082,-0.0014566784890344148,-0.00042959374795728273,-0.002695827142190732,-4.622732756398334e-11
forward_1,359.892,0.3672130921741921,-0.06587152951806564,9.86312406179052,0.00046073606455668395,-0.003466787684949699,0.0013235165894723102,-4.689221202840856e-11
forward_1,359.901,0.3502090308769371,0.01316253195273271,9.800438398394128,0.0005995289748938226,-0.0023864910865638712,-0.00018905309995275737,-4.739060158736355e-11
forward_1,359.91,0.33366196642407353,0.002115309486336158,9.842443939032043,-0.001956244240883552,0.0004639149372378861,0.002142289168561178,-4.7888749086308824e-11
forward_1,359.922,0.38086830107703307,0.02146461570643965,9.828179771778702,0.00042687600424438904,-0.0012597128424106548,0.003985980973266753,-4.85525589045556e-11
forward_1,359.931,0.37011259860487017,-0.006711741131773793,9.795211966403055,0.00013264780593436092,-0.00012850714343321627,-0.0017213725889977563,-4.9050118729414596e-11
forward_1,359.94,0.43030981504474736,0.000334818176724574,9.791387810291539,-0.0017884875245125493,-0.004705758773741542,-0.0027235186546248984,-4.954741832347349e-11
forward_1,359.952,0.35172860833436065,0.026745265920070902,9.770493791096815,0.0023186466247780706,0.0020948629166388814,-0.0005689653045618954,-5.021007172600139e-11
forward_1,359.961,0.2989272114137436,0.017600030896562546,9.776433177135893,0.0012721461739015026,0.0060847082744946435,-0.0017999928166897968,-5.070674675070638e-11
forward_1,359.97,0.3891964776558153,-0.013071781923769552,9.793877186891038,-0.0021162177639494025,-0.0005623586613618884,-0.0018455830497944338,-5.120314813389953e-11
forward_1,359.982,0.3282242312176838,-0.004026476074263173,9.83203345605629,0.0017382507303999432,0.0003285940394317944,0.0008601893513161994,-5.186458719167637e-11
forward_1,359.991,0.40442168374729914,0.017926771074578723,9.752954142924102,-0.0003528273823745152,0.005188164781272518,-0.00020138426991381188,-5.2360343537521774e-11
forward_1,360.0,0.4080393909947395,0.02006604720200855,9.774818366932022,0.0020557153611826763,0.0006336698693109744,-0.0029547957728000528,-5.2855821957385106e-11
forward_1,360.012,0.40005805800532585,-0.04006491390399384,9.800671852246124,-0.002345312088311235,0.002961172763069061,-4.110241527308423e-06,-5.3516029958464646e-11
forward_1,360.021,0.34753160620194096,-0.0496251107625617,9.788676246927285,0.0003558256853447642,0.003435358690768738,-0.0010327272189564027,-5.401086455699678e-11
forward_1,360.03,0.38140562247272225,-0.019002532025019853,9.784596498517146,-0.0005089657433613381,0.0022216762803316343,0.0008483130381748608,-5.4505429068466947e-11
forward_1,360.042,0.3559500189399047,-0.0005807814382793397,9.821625756043192,-0.0009088203658234207,0.0008703286948781758,0.0005099789382447824,-5.516443395806674e-11
forward_1,360.051,0.3186507948902565,-0.02583868608138014,9.783055051467889,0.0003293045945774943,-0.0009281751397194051,0.0009905615988284953,-5.565838634982825e-11
forward_1,360.06,0.2946699230256378,0.0070927122639729305,9.802758421043928,0.004659847763673487,0.0004010479382932758,0.0032567429646646303,-5.615208893441481e-11
forward_1,360.072,0.3205822080538181,0.010731438009645206,9.753748612771389,0.0006847399978834259,-0.000257297018060801,0.0025964540930376984,-5.680998690120965e-11
forward_1,360.081,0.40118455042356643,-0.03256836590876347,9.834873916297209,0.0018922715934755717,-0.002280077921211172,-0.0009388480150178809,-5.730314505331529e-11
forward_1,360.09,-0.016918960594474317,-0.02320578476222666,9.748292684571249,0.00047052573796077675,-0.0013884290102869408,0.0029756199461688296,-5.739513936852906e-11
forward_1,360.102,-0.044036200831949736,0.047576158978954126,9.859676858411733,-0.0009795349081885474,0.0020743041365203665,0.0023242159684459286,-5.7417013503271433e-11
forward_1,360.111,-0.04459937900602885,-0.040053499940092954,9.793851797829648,-0.0017620125475583178,-0.0010769300606447672,-0.0013606583397308442,-5.7433544477590575e-11
forward_1,360.12,0.0007034645823414161,0.018140269554674987,9.776717025190788,-0.00015077770075427605,0.0010881274340323122,0.0011029670626450541,-5.745019172025814e-11
forward_1,360.132,-0.019119419214814245,0.029202244215179966,9.835319235646077,-0.0009548701254957079,-9.14677656657461e-05,0.0021138002530134417,-5.7472582209651215e-11
forward_1,360.141,0.00939033228597712,0.004472424370370738,9.705285622604098,-0.0014217917352752493,0.0006185620993804844,0.00278470677418624,-5.748953075912163e-11
forward_1,360.15,-0.045852187671643375,0.05669812921488565,9.754761555739904,-0.000370493653084323,-0.002272319635429618,-0.0009963007047565624,-5.750662051100887e-11
forward_1,360.162,-0.018733010504804963,0.033672174736307785,9.819015265856663,0.001424271653358742,0.0008463316823253189,-0.002038942372620915,-5.7529639454553814e-11
forward_1,360.171,0.01266706377416696,0.02704316844561501,9.830333514051441,-0.002994418751268701,0.0016935041875514312,-0.0035928117780178884,-5.7547086248557e-11
forward_1,360.18,0.002794669686645673,0.010687167807780529,9.82200995550461,-0.001864528958565264,-0.0022089957707782278,-0.00204011879776811,-5.7564697367371276e-11
forward_1,360.192,-0.013332552498649501,0.0024657711690876365,9.814360376368512,0.0030046219288392927,-0.001380665172161345,0.00022157561216672273,-5.758844414154925e-11
forward_1,360.201,0.017127966111223712,-0.002689054345575135,9.798898956634,-0.0037495433995981286,-0.0009249238887047123,-0.001690759429788295,-5.76064611245293e-11
forward_1,360.21,0.01714303313584844,-0.025007407870217137,9.78786928992811,-0.002317612188426534,0.0015023618051352504,-0.0019238831976432888,-5.762466100389074e-11
forward_1,360.222,0.014593134949406766,-0.02070657439463739,9.808896697456497,-0.0045347180409807605,-0.0013374517092881316,-0.0016433630165445885,-5.764922136207425e-11
forward_1,360.231,0.020641992809991194,0.0007778314731025915,9.800166048873566,-0.004950250742871362,0.0006519070663384743,0.0001533079769783014,-5.76678683640146e-11
forward_1,360.24,0.011260166508263014,-0.004533703780149898,9.817710025015387,-0.00039017240162044913,-0.00021909372182319105,0.004595017963140892,-5.7686713468473073e-11
forward_1,360.252,0.01052275820986117,0.044796070980065356,9.797277701456837,0.0011483105410747374,-0.002242673195496275,0.0007881745927359022,-5.771215598515102e-11
forward_1,360.261,0.019300428441810596,0.015767984144789797,9.800852644919802,3.604687552987837e-05,-0.0004228554163601699,0.0004833358777372524,-5.7731479617194544e-11
forward_1,360.27,0.049228056319702826,0.022647701446787526,9.804904642395481,-0.00026434490262026875,0.0036436100877922342,-0.004243780015879177,-5.775101349921892e-11
forward_1,360.282,0.0045502656892312,0.0205006908938491,9.809336272982215,-0.0018009736880758,0.00027782691415087214,0.000515650704013846,-5.777739023862513e-11
forward_1,360.291,-0.00011280118400873561,0.026567106774027776,9.775011133406919,-0.002450630066601072,-0.0010056117854957414,0.002248962533980754,-5.779742479534724e-11
forward_1,360.3,-0.02798622727063974,-0.01722425701912604,9.822701658864931,0.004039224988137913,-0.0025107015836275063,0.0008490562515888626,-5.781767732571181e-11
forward_1,360.312,-0.05913591569807484,0.005074497584365588,9.825188421489548,0.0010865209508908891,0.006083867125366807,-0.0006255289126055932,-5.7845021040204384e-11
forward_1,360.321,0.043325597268149274,0.0460213628311292,9.881728476126444,0.000710510905219796,0.002163153038406734,-0.002493995259622707,-5.7865786684288025e-11
forward_1,360.33,0.02338775883482455,0.024858681503817752,9.848670295543453,-0.0032859617841158708,0.0012815423016856987,0.00046135731989317463,-5.788677291746121e-11
forward_1,360.342,0.01607195129947478,0.017744524637249556,9.79046427514343,0.0045565989039569035,0.002097197413783861,7.196894190867923e-05,-5.791509842678502e-11
forward_1,360.351,0.04341522938255408,-0.03572052609887265,9.798862396338805,0.0017200292489344027,-0.0023547671955655145,-0.0014449360083298687,-5.7936600043807296e-11
forward_1,360.36,0.017812829013978442,0.006066339960186025,9.763030155689142,0.0008391863791971274,-0.0009473049956006681,-0.0012981057539169216,-5.7958321516369184e-11
forward_1,360.372,0.009796618949693326,-0.02853876114892833,9.782740038996675,-0.00012909478265244574,-0.0018652682682131973,0.0005389184909511596,-5.7987622810683984e-11
forward_1,360.381,0.029205309367903297,-0.009588241569643875,9.788718008621617,-0.0005903767290639665,-0.0019144975943531169,0.0008510176195206781,-5.8009851143184434e-11
forward_1,360.39,0.038465999874349385,-0.027744017984161908,9.793022100507887,-0.002877245763473844,-0.0016714884856401041,0.001831291660895435,-5.803229319211949e-11
forward_1,360.402,0.013868801871016198,-0.008038476441628042,9.783170407448166,0.0007300818662903098,0.0019784166025197084,-2.4419206189143404e-05,-5.806254438100639e-11
forward_1,360.411,-0.013743495178744722,0.0195725948668458,9.856573876461184,0.0007563236801918988,-0.002072458556082537,-0.0006849352899689053,-5.8085475131780284e-11
forward_1,360.42,-0.004362028649232883,-0.032222049723634856,9.814549569799066,-0.003080196862446369,-0.0017622987531073439,0.0003431299876534697,-5.810860981690511e-11
forward_1,360.432,0.021459352055180205,0.031348206183464816,9.814678192957992,0.0027658318325541834,-0.0017664174253916364,0.0015125796210110603,-5.813976730030805e-11
forward_1,360.441,0.043117607534331845,-0.03361955285698046,9.792836722975046,0.0019913194083233353,0.0032320334063333485,0.004114974979467008,-5.816336371977978e-11
forward_1,360.45,-0.007511930406887916,-0.02784133915162697,9.77276838425312,-0.001765619798431644,0.0019969631107899307,0.005634530214261566,-5.818714991917949e-11
forward_1,360.462,0.02752342883113404,0.015274374362850764,9.788001435202103,0.0022732388417072884,0.001343532642092726,-0.0017799878264861844,-5.821915187353739e-11
forward_1,360.471,-0.014917701227052455,-0.02123535377921515,9.797579017668676,-0.0023108734868320098,0.0005700115303218431,-0.002781465705817133,-5.824336175113749e-11
forward_1,360.48,0.050156562232515925,-0.031926214540193364,9.77486957907008,0.0030297243679242706,-0.001064130579475086,0.0014367795072351736,-5.826774432219481e-11
forward_1,360.492,-0.029792998421205554,0.022656488297506414,9.807810540048926,0.0010602617187504514,0.00132198603391204,0.002300302214887,-5.830051223957781e-11
forward_1,360.501,-0.038538345692542754,-0.03295715954635411,9.837983408775283,4.834304434430998e-05,-0.0034885560048759697,0.0004481411945609187,-5.832527294426161e-11
forward_1,360.51,-0.0135425994343284,0.03624243141600777,9.783448061654374,-0.0037974421799701137,0.000952902372825496,-0.0038482499568459195,-5.835018511417346e-11
forward_1,360.522,0.08372809403582654,-0.030760753762999506,9.807486332099742,-0.00027637747425540606,-0.002920464702305849,-0.0001524082823665061,-5.838362475340248e-11
forward_1,360.531,0.003620808820283104,0.0006954067637553715,9.782937785969157,-0.00202676810140829,0.005285270618589087,-0.0019478782532820799,-5.840886249681766e-11
forward_1,360.54,0.0458560181226985,0.0024731500406321165,9.825223487154226,-0.0018527299582030694,-0.00015014918480285285,-0.0003252604417469692,-5.843422736498524e-11
forward_1,360.552,-0.032790551030007505,0.00513376764478317,9.816591958706052,-0.0010635474631248295,0.0021242531743581516,-0.0018247094756225761,-5.846823107161198e-11
forward_1,360.561,0.04417689618379766,0.06906619593214852,9.773880141293606,0.0030704326787533674,0.0009027758440653939,-0.0010259863865212245,-5.849386172295312e-11
forward_1,360.57,-0.02659345883936078,-0.02609573563969912,9.774514318725647,0.0011363899021405565,-0.0009553229905499409,0.0006611771562607461,-5.851959283228286e-11
forward_1,360.582,0.019946532828700632,0.0288167411288626,9.78389191518523,0.0012352623479476499,0.0017743570183120934,0.0011978750111400092,-5.855404321321671e-11
forward_1,360.591,0.02925987940981853,0.041048960170893295,9.815706007162387,-0.002354234221641057,0.002673280829933586,6.89780437556463e-05,-5.857997516693502e-11
forward_1,360.6,0.020764351680583465,-0.004371432894422609,9.784671842946151,0.0005278080975364293,-0.0020420030023309103,-0.0013249655335381954,-5.860597926938357e-11
forward_1,360.612,-0.03837169862040987,-0.021427926465867157,9.787675098904225,0.004167419857059073,0.0005226777240811512,-2.385005228219474e-05,-5.864074705672725e-11
forward_1,360.621,0.019143814801586567,0.06364742806388195,9.823877099342065,0.003106756640157635,0.0026833877476664784,-0.0034486062248519967,-5.866688349685628e-11
forward_1,360.63,-0.04487226867101797,0.0022355157827233544,9.88102588314167,0.0017481358810314941,-0.001204498181182741,0.0021928500266816817,-5.86930618021978e-11
forward_1,360.642,-0.010729788552022775,-0.03848888955482747,9.785485163454746,0.0019483898576015818,-0.0023985240461775583,0.00040577201978181295,-5.872801443656564e-11
forward_1,360.651,0.013278028992101319,0.006212120208546283,9.811460659557277,0.0016382407189786032,8.409614924896265e-05,0.0009454200593575529,-5.875425359593181e-11
forward_1,360.66,0.0041463238789378526,-0.010243895079584849,9.749164435070252,0.0024772331581258715,-5.326076241368061e-05,-0.0003909468538534543,-5.878050355232102e-11
forward_1,360.672,0.004082908179797422,0.006723469984852817,9.796276526837266,-0.004430815301751233,0.0008151977535293084,0.00040695553820898695,-5.881550415728483e-11
forward_1,360.681,0.046719665359064966,-0.05588596188375178,9.832357633996908,-0.002651519945691132,0.0002738900090132679,-0.0017397869474809092,-5.884174276800558e-11
forward_1,360.69,0.012498770007423096,0.0267501238887654,9.810907573087038,0.0008288514754663148,0.0005177228980217762,0.0018542034966341685,-5.886796046771104e-11
forward_1,360.702,0.00800397382079665,-0.0009990039533650796,9.763030321243047,0.0009898770045399998,-0.003911950591935021,-0.0015963578266338923,-5.89028704666764e-11
forward_1,360.711,-0.0034482287107239066,-0.01294769140842823,9.743431556214286,0.0007878576087523561,0.0002539207232912238,-0.0015321122899032856,-5.892900494190551e-11
forward_1,360.72,0.040191614868066286,0.045507939581672555,9.812133609872163,0.0011726711959032237,-0.000786631550334303,0.0006268841906519308,-5.895508728315682e-11
forward_1,360.732,0.013712184043650977,-0.02864823771123182,9.776136839808247,-0.0022418041841373486,-0.0018818094433631857,0.0014105325036951393,-5.898976839407802e-11
forward_1,360.741,-0.00966093528917625,0.0062120007142387875,9.761598327940142,-0.0036427129692252268,-0.000567804681979875,-0.0015468658487317007,-5.901569630276342e-11
forward_1,360.75,-0.04214175395789182,0.021011371004826366,9.801071625964369,9.815321387408933e-05,0.0004253318307459679,0.000656628700825961,-5.90415432091985e-11
forward_1,360.762,-0.03714254770880814,-0.0010922029338222355,9.84254186354685,-0.0013641646322155791,-0.0006355853747975421,-0.0007739431390360385,-5.907586541819679e-11
forward_1,360.771,-0.03379909665356096,-0.06441013884361325,9.719526502127609,-0.002551962082424095,-0.0010039474832590303,-0.0007268053917128163,-5.910149046681371e-11
forward_1,360.78,-0.03532258012520174,0.010402465292704026,9.789166837070725,0.0010438747060137184,-0.001528920422985868,-0.0019142265108554853,-5.912700665481677e-11
forward_1,360.792,-0.01976327864482974,-0.018109195900271883,9.791022238124224,-0.001506701079579534,0.002142173397797715,0.002239666524520867,-5.916084415215145e-11
forward_1,360.801,-0.0047504010689067505,-0.007411012554018809,9.79880342648777,-0.00027596426484556477,-0.00185068481179725,-0.000936200442924809,-5.918607454717819e-11
forward_1,360.81,0.04251400361032235,-0.0031866139959695256,9.77941393716104,-0.00021336488225972221,-0.0003520729352738058,0.0013439239679544563,-5.921116985110567e-11
forward_1,360.822,-0.008184340031587559,0.0018993783127618635,9.8478982361476,0.0034154285276142985,-0.0035437136412819208,0.0015381811640997566,-5.924440794663915e-11
forward_1,360.831,-0.0014776029303705967,0.016797148391209802,9.755963736325434,0.0009338159815429772,-0.0009220782778288081,-0.0019179162509982124,-5.926916050995116e-11
forward_1,360.84,0.007379872666292202,0.04342038152238071,9.77451996988119,0.0013943748918584028,-0.0034855799990502847,-0.00019660814552110358,-5.929375478489313e-11
forward_1,360.852,-0.03339304757363383,0.01655374303160593,9.861505900310124,0.0004067865673621245,0.003639261821731227,-0.0006531047323975137,-5.93262896395049e-11
forward_1,360.861,0.00406190384981949,0.027033499252798403,9.776696605466535,8.596630903691907e-05,-0.0036978736022153158,-0.00048827644958066913,-5.935049023231099e-11
forward_1,360.87,0.0014420276544521366,0.0006371813514354868,9.828971234187353,-0.0014709427390456058,-0.002771342311245006,0.0032840035961452367,-5.937451255962894e-11
forward_1,360.882,-0.034345639024283135,0.03374058194185524,9.8006089434774,-0.0008600433857465914,0.0013537332770069558,-0.001242817525195312,-5.94062555658348e-11
forward_1,360.891,0.02759793032162243,-0.004563542493804767,9.789655997164495,-0.0008945606170438619,-0.0006894154705376294,0.0030375482671385354,-5.94298414297184e-11
forward_1,360.9,0.011747474571459216,-0.005007397751466184,9.811252881167581,-0.00036345535249862685,0.004258407284746224,0.0008395639973185257,-5.945323218425668e-11
forward_1,360.912,-0.026512112884668426,-0.025984230789087074,9.758114537407865,0.0014645983642610494,-0.0017454573745394881,0.0024406868065366565,-5.948411009072837e-11
forward_1,360.921,0.04607510042267056,-0.017375970205761114,9.710255610060386,0.004543777353007287,-0.003168608172646099,-0.002401625483701948,-5.950703091357097e-11
forward_1,360.93,-0.036165347184899145,0.014841604428914872,9.775527631355178,0.00041006847173270295,0.0024349119164787064,0.0006564750104605852,-5.952974332865351e-11
forward_1,360.942,0.03188918825433869,0.00808516309412287,9.826011736978623,-0.001141911713206517,-0.002408648223918197,0.00038206980561573885,-5.955969843804434e-11
forward_1,360.951,0.024519360096533306,-0.038672792298110464,9.846073668095592,-0.0019313029817990752,0.00402301432414703,-0.00034715146430740077,-5.958191565114145e-11
forward_1,360.96,0.0627468584269303,0.02207932909053313,9.755531315255887,-0.00016186574965455295,-0.0017630362253295043,-0.0022638529231321066,-5.960391669923045e-11
forward_1,360.972,-0.00432454687518832,0.01732681301930853,9.720736389208408,-0.0039026889858559863,-0.00198724474858046,0.0008463151688101915,-5.963291201346141e-11
forward_1,360.981,0.04863565084114339,0.024403864601114895,9.819382895022837,-0.0006961740721795911,-0.00035659335576444356,0.0011394264353656014,-5.96544036393919e-11
forward_1,360.99,-0.05833988565575165,0.01552795049598866,9.781403817724266,-0.0023562269859289378,-0.0028148710232319663,0.0025415014923379285,-5.967567429418174e-11
forward_1,361.002,0.023189351793157453,0.014277122965524965,9.816833580014189,-0.001681082474707442,-0.0026479161680604832,-0.0034240756413351885,-5.970369213604059e-11
forward_1,361.011,0.007002663298640927,-0.014372705617955967,9.820795184837063,-0.002458666273743104,-0.0017739254162516436,-5.2231419722587634e-05,-5.972444814132136e-11
forward_1,361.02,0.044308620714681814,0.02269927838173575,9.76709464555906,0.00040521879787055364,-0.0011042271784839003,0.0021067791836888,-5.974498388143284e-11
forward_1,361.032,-0.011932645033408488,-0.0332125870188291,9.821289508596195,0.0019796895256486207,-0.0008852184408304469,-0.000352452516709372,-5.977202416790804e-11
forward_1,361.041,0.04464274349858174,0.014339727111053363,9.795714846755567,0.001517556428821667,0.0026470026443734624,-0.003583878984729398,-5.979204977396101e-11
forward_1,361.05,-0.014134893321675716,0.03179473544582154,9.824891396216012,-0.0016200046126486165,0.000203873694233859,-0.0015297534803883853,-5.981186045010871e-11
forward_1,361.062,-0.0071065372466446565,-0.024147032584528844,9.859501570077372,-0.0021676819011198314,-6.108515124743023e-05,0.0027961566682892123,-5.983794216190547e-11
forward_1,361.071,-0.0015660220389675842,0.014111822921863056,9.815619408581492,0.002065012511453804,0.0005695846670262633,-0.003292168152367954,-5.985725818950207e-11
forward_1,361.08,0.01283724614945204,0.01804180244953033,9.82039722219834,0.0005913879684244843,-0.0010665502751060767,0.0011598300623762606,-5.987636714559257e-11
forward_1,361.092,0.02210262397516021,-0.01712290571574803,9.819444054780515,-0.0008583110462444755,-0.00064835113462944,-0.00020273880203352425,-5.990152989348487e-11
forward_1,361.101,-0.030808973153019923,-0.00840459637278514,9.788091983986268,-0.00046428858381245,0.003265889800400939,-0.0013722323811420558,-5.992016976007514e-11
forward_1,361.11,0.0015359110386197418,-0.03855256650076345,9.774643239686858,-0.0006093312646626966,-0.002464078600757982,0.002150082184938149,-5.993861598324254e-11
forward_1,361.122,0.027076102112090706,0.0031389176747083597,9.792901484041563,0.0012522744320322824,-0.0027536799969897913,0.0023260150042778895,-5.996291800781945e-11
forward_1,361.131,-0.014919471303434968,0.041376203046446215,9.781647642197427,-0.0012851230684733073,-0.0009545368004426121,0.0023401554974852054,-5.998093010526456e-11
forward_1,361.14,-0.0027563952278153747,0.011693910582490603,9.859844703871424,-0.0018053504997222335,0.0017835477146286441,0.0004661076544956588,-5.999876581749676e-11
forward_1,361.152,0.006172956616258812,-0.023564385775120926,9.816778864383297,-0.003154225763257239,-0.0008170223605148807,-0.0009099151121200769,-6.002228122895462e-11
forward_1,361.161,-0.03269439238892686,0.008428717974625768,9.783405831896879,-0.0029920166041885027,0.0034739942564568633,-1.7885776775028596e-05,-6.003972621805378e-11
forward_1,361.17,-0.016972551475809044,-0.0427791002626716,9.800425715623458,-0.0015709853354417833,-0.0035909663400027656,-0.0010615217824433297,-6.005701443209054e-11
forward_1,361.182,-0.04802802434086418,0.0038996306497802455,9.79031621807068,0.0018654600470226072,-0.0010013216766302136,-0.00301135531969166,-6.007983305218645e-11
forward_1,361.191,-0.02645167842382679,-0.004400328127379491,9.789048048859923,0.0007913276897157009,-0.0007297910642255843,0.0018203948271267017,-6.009678229536048e-11
forward_1,361.2,-0.010737765458465293,-0.021068977951514363,9.748994047887038,0.0004804991342088588,0.00026948518529817445,0.001190387152362685,-6.01135978899771e-11
forward_1,361.212,0.07233334691814651,0.010572797429610275,9.817095148194703,-0.0010548785402879968,0.000774159505757506,-0.0008258620526887431,-6.013582437620918e-11
forward_1,361.221,-0.03602573933619227,0.03989126238076351,9.786549689804925,-0.0013518982100675597,-7.72815829041437e-05,-0.0017274254242398302,-6.015235824899289e-11
forward_1,361.23,-0.0012140069314988343,-0.005249754385113606,9.799711672487298,0.0018729604410352096,0.0018688476908962442,-0.0004734236604652157,-6.01687857696769e-11
forward_1,361.242,-0.029209831376711518,0.005588030679731905,9.762737738806347,-0.000917280338996441,-0.0006507278250661798,0.0010798863273335868,-6.019053608046436e-11
forward_1,361.251,0.009072415981343422,-0.02367931952336472,9.7964492444558,0.0010202006771924724,-0.0012923956802622497,0.00013491266189360768,-6.020674496782808e-11
forward_1,361.26,0.014511842833382181,-0.01476511586199633,9.816768301218287,-0.003974222086930103,-0.005415094401324109,-0.0010523993936913199,-6.022287489223915e-11
forward_1,361.272,-0.008777099193586447,-0.012191959487404893,9.784906740781144,-0.0003211367256103915,-0.0009783009731766665,0.0047053880449309336,-6.024427431664452e-11
forward_1,361.281,-0.011450222651482475,-0.030320864395329262,9.760710072448365,0.00242044942545054,-0.0005438678954838522,-0.0005099378692494724,-6.026025405555811e-11
forward_1,361.29,0.02487625433808728,0.024002868711312325,9.775126750232902,-0.0023267342554316225,-0.00034138779213605533,-0.0026993153224514374,-6.027618466936128e-11
forward_1,361.302,-0.03481135328896602,0.011318971759482996,9.79860137578312,0.00044439093792233124,-0.0015930801910405085,0.00044641942410141966,-6.02973648709387e-11
forward_1,361.311,0.05405216798441691,0.018163223966988905,9.766864502270042,-0.0012967580460433665,-0.0005643983183343087,0.0019826811282551027,-6.031321653154572e-11
forward_1,361.32,-0.04371180646364741,-0.0052388887783942064,9.80696879849407,0.001840642253720486,0.002219452052973662,-0.0007392231116132587,-6.032905033877812e-11
forward_1,361.332,-0.003640061636362411,0.008554565741346528,9.793217697915678,-0.0007727121685818678,-0.0020377993742214788,0.004322636524856308,-6.035014874896135e-11
forward_1,361.341,0.003936549014784181,0.036515602129123595,9.866149677356455,-5.0527454412890867e-05,0.003026452277295633,-0.00015263090895950728,-6.036597503698369e-11
forward_1,361.35,0.00790148047430463,0.03134392393009616,9.775398012705743,-0.0007825670985386198,0.0009726772859413455,0.002067616933352578,-6.038181428479225e-11
forward_1,361.362,-0.008246774233758435,-0.05149196529475483,9.77713963748753,0.0013308456705557197,0.0004926091403776435,0.0025750666144024334,-6.040296898828617e-11
forward_1,361.371,-0.02354787744359263,-0.02543104847350783,9.757418103318765,-0.00024036575118606423,0.001792631911832281,0.0011217914691690654,-6.041887401112115e-11
forward_1,361.38,-0.019430046220776626,-0.046112252364668344,9.821692659762803,0.0023045333836834575,0.0016585397843542524,-0.0007608908521908688,-6.043482257948313e-11
forward_1,361.392,0.029921597908687314,0.010996643234309822,9.768552801134385,0.0007592052288173191,-0.0004532715110214997,-0.0014553200387669545,-6.045617052052066e-11
forward_1,361.401,0.004994387364563353,-0.012256574596062636,9.808868072601683,-0.0013487808058664375,-0.0043802903740927076,-0.0017839020423184072,-6.04722562057856e-11
forward_1,361.41,-0.0026923870024442957,-0.02959597082406309,9.817919843797839,-0.0019501976035721945,0.0012426031196839183,-0.0015980106827495886,-6.048841495707528e-11
forward_1,361.422,0.013975952548275512,-0.025214717088445894,9.738646595390687,0.00015780664196358057,-0.00010972709661012848,-0.0036523274211229927,-6.051009057473913e-11
forward_1,361.431,-0.017004479753410698,-0.003887897878437037,9.74827385414498,-0.0019763772107598606,-0.0007666192545991474,-0.00014430613986879558,-6.0526455226312e-11
forward_1,361.44,-0.027473345719804542,0.04972698195333289,9.814989429584811,0.0024056449676888554,-0.00013865199489791812,0.0025100959947094823,-6.054292192220427e-11
forward_1,361.452,-0.028468537629148607,0.02030952886221515,9.817599611255245,-0.001828961242229373,-0.0013220815500266272,0.001852217021860001,-6.056505119567513e-11
forward_1,361.461,0.05323558232505664,-0.03340223009591685,9.79934221587156,0.0014970423561838284,-0.0002570395495746421,0.0027381829977982265,-6.058178794628231e-11
forward_1,361.47,-0.0014746343827192617,0.0012711191928492416,9.76626716378131,0.0009255928890477653,0.0037680486128980504,-0.002319915421755667,-6.059865337726403e-11
forward_1,361.482,-0.04792809988117641,-0.009425472419748858,9.828385880765397,-0.002757226652331125,0.002123893904580387,-0.00032864206846698867,-6.062135415216927e-11
forward_1,361.491,-0.04391346856303095,-0.041457151491268635,9.808730957984366,0.0026159581977747235,0.0033896500393472482,0.004571762959101597,-6.063854877784146e-11
forward_1,361.5,0.004295029409412469,0.02797145006926144,9.792197325323093,-0.004331728285292593,-0.0006088788527910952,-0.00031622895027515543,-6.065589608690929e-11
forward_1,361.512,-0.04292312462391377,-0.01225420508383468,9.788423684066546,0.0011203784954886336,-0.0014443399565193917,0.00035757523531575663,-6.06792749396806e-11
forward_1,361.521,-0.06275951696742622,0.011200789820420646,9.793827989157029,0.0020977961293247123,0.00185759178122828,0.004205504884180803,-6.06970036256565e-11
forward_1,361.53,-0.028498319794227435,0.017413786159821892,9.818929011081332,-0.0008352767754182397,6.417296337156838e-06,0.0007883123329285615,-6.071490597770162e-11
forward_1,361.542,-0.049902360160367004,-0.01806838727239162,9.78437997990127,-0.00038997681185504174,0.0035567661159552656,0.002162732265383715,-6.073905593487619e-11
forward_1,361.551,-0.005821993637134998,-0.057835088802908774,9.821015649679044,-0.000854389030904489,0.0028853197226492897,-0.002093158779239367,-6.075738530693391e-11
forward_1,361.56,-0.03487792280931036,0.00036070652890120145,9.846989252029893,-0.0020253919287874914,0.001250398747145282,0.0021405500255519978,-6.077590530218419e-11
forward_1,361.572,0.04407575139123098,0.05242347549126229,9.773749762938644,0.003847803424986417,0.0011897416601306622,-0.000622169392365762,-6.080090388025333e-11
forward_1,361.581,-0.04439553354711913,0.006691374994138841,9.760201383566386,-0.0015320899538620247,0.0023517913844334215,0.0025216154965129666,-6.081988661436267e-11
forward_1,361.59,-0.03201344261840684,0.007208015151498263,9.824802917601827,-0.00030988903997372,-0.0007652336251658585,-0.0003117453669525426,-6.083907433234759e-11
forward_1,361.602,-0.011583516977440415,-0.002620924122040494,9.77682424332751,-0.004994302951891628,0.0014857561425866653,-0.0006490399981129187,-6.086498218912967e-11
forward_1,361.611,0.04690149330056819,0.057890575745203086,9.80018784624094,-0.002357671534146232,-0.0015387116098441883,-0.0007206365873587814,-6.088466042876238e-11
forward_1,361.62,-0.0032123911930730534,0.035754068451102336,9.773318433758517,0.0006707069967763639,-0.0013769003085834098,0.0012948049082364074,-6.090455277658216e-11
forward_1,361.632,0.013791118299471045,0.023069544378455042,9.777864746807836,-0.00244623091455828,-0.0003194663083220239,0.001327211822145862,-6.09314123480877e-11
forward_1,361.641,0.007706756003670896,0.01637927518539539,9.81584679317052,-0.0013958912111455904,-0.002267507867451462,-0.0011431684373293554,-6.095181238599626e-11
forward_1,361.65,-0.006848224840426379,0.015545763708982606,9.813461326517533,0.000520570128228656,-0.00022557849245858152,0.0005028666288492644,-6.097243174912648e-11
forward_1,361.662,0.03188599254055652,-0.028627551738330783,9.820585730670091,-7.066837052088315e-05,-0.0021513002382326837,0.0016956759344265617,-6.100026729437195e-11
forward_1,361.671,0.013532582928058867,0.007411572051823163,9.785821398785767,0.002509148559406593,-0.0020881247705691478,-0.00013152888226740432,-6.102140126857128e-11
forward_1,361.68,0.044514215442751665,0.015807709476988757,9.848360618445998,-0.0007151540704490076,9.852028329269853e-05,-0.0008722045622828295,-6.104275685973453e-11
forward_1,361.692,-0.03717401280448526,-0.018814355482596752,9.768983016285656,0.004277041379133048,0.0011702821180237834,3.3067688991342366e-05,-6.107157217484727e-11
forward_1,361.701,-0.017131617757295253,0.01412093369131223,9.787497794983448,0.0027611564406761525,-0.0026222630554979228,0.001823739178423826,-6.109343971880312e-11
forward_1,361.71,-0.030374482882914052,0.007025052193437907,9.778257085789026,9.989624090619296e-05,0.002534685110824124,-0.0035096579976455194,-6.111552423275775e-11
forward_1,361.722,-0.03733387392038894,0.010790139876306701,9.843181829927092,0.00046459436229724844,-0.0035263675817558343,-0.001872366775921184,-6.114530504791156e-11
forward_1,361.731,0.015806574631383765,-0.07354516689399146,9.811968443134962,-0.0007541410387215982,-0.003021261936933231,0.0006043497799312045,-6.116788853729239e-11
forward_1,361.74,-0.002122211057413605,0.015678829448947773,9.804497284548171,0.004060374554024045,0.0038883353045604066,-0.003335627851717174,-6.119068152898308e-11
forward_1,361.752,-0.0016952045689343856,-0.023460786746058948,9.822775956236702,0.00012795681291366223,-0.0012177139782059395,0.001475948497751497,-6.122139243285813e-11
forward_1,361.761,0.009848296343911487,0.013060326014458185,9.81861534211407,-0.0009442228927451017,0.003722489727611495,0.0026516904274083678,-6.124466126166908e-11
forward_1,361.77,-0.0072662015265373345,-0.0067314945690182745,9.812396304329933,0.0030239335706303528,-0.00025215630912125677,0.0017086721130670649,-6.126812807814663e-11
forward_1,361.782,0.030330887906984894,-0.011424187295557761,9.792319029699902,0.0014769911489441213,0.0015562484284570607,1.986028735525511e-05,-6.129971661276238e-11
forward_1,361.791,0.03708720235113138,0.08196058035326288,9.819954157820105,0.0012243579260777188,0.0016968305846671483,6.49835269646598e-05,-6.132362723699004e-11
forward_1,361.8,0.01534060617335861,-0.048756562249279795,9.780471901478323,0.0018516501203098396,0.0026727965934362076,-0.00159246317811983,-6.134771928537334e-11
forward_1,361.812,-0.05037640493032192,0.012141413606991072,9.80474590515625,-0.0022870759628732455,0.0007511728931679445,0.0031474258719026774,-6.138011509423232e-11
forward_1,361.821,0.04293120394403146,-0.0010022457897377317,9.786455907528428,0.0012190394717522192,0.0005506881907918036,0.00014865689834369215,-6.140460904437093e-11
forward_1,361.83,-0.021359419175954426,-0.00016764771099748847,9.773111413068204,3.5187910135078705e-05,-0.00022174854117805071,0.0013511819452659052,-6.142926501619497e-11
forward_1,361.842,-0.0010786314623309856,-0.037750751004133526,9.764014408898664,0.000630360599894285,-0.00023181753994258196,-0.0014939188737606419,-6.146238154149219e-11
forward_1,361.851,-0.0429216986395618,0.010658608271501559,9.808830519474837,-0.0004445341452497952,0.000501861881889013,0.0003259985134137188,-6.148739097440858e-11
forward_1,361.86,-0.01852646721438936,-8.142125189435381e-05,9.80037868812751,-0.00040562274148686986,0.00041906730447110595,-0.0015243769066660125,-6.151253996876271e-11
forward_1,361.872,-0.01003202094056616,-0.018885908685760656,9.83718164813403,-0.002549233848429124,-0.0032357774480123863,0.004194823428801665,-6.154627638311724e-11
forward_1,361.881,0.009199959109478609,0.050619518014772,9.783434590800578,0.0020642080782768382,0.0011543085516988062,-0.00034849413813586687,-6.157172213308712e-11
forward_1,361.89,-0.0025426166659788625,-0.05389629672679065,9.846009272679725,-0.002565498763810489,-0.0018688214716003962,5.852294954678658e-05,-6.159728228256445e-11
forward_1,361.902,0.00959792378421292,0.05049657370618805,9.78173207169851,-0.0005996195221792111,0.000532399713557423,-0.002175988746513883,-6.163152541983829e-11
forward_1,361.911,0.006642491724749937,-0.003193254850029138,9.791104982606328,0.0005591983873448806,0.0005133323617522406,-0.0029730308901973314,-6.165731952761739e-11
forward_1,361.92,0.049032228733983364,-0.03166995712860539,9.78953801534257,-0.0020061590488789473,0.000558571061691088,0.0019105187958101373,-6.168319951249342e-11
forward_1,361.932,-0.021440136914866976,-0.0600636792359739,9.794430904863878,0.0015557786443187217,0.000147668191403325,-0.0010477231538391404,-6.171782544257122e-11
forward_1,361.941,0.018979483292620686,0.014721634764671572,9.785087944361345,0.0033482361777682594,-0.002132609921241412,0.002405933116452471,-6.174387300632333e-11
forward_1,361.95,0.028939962184618397,-0.03061371665873064,9.806878677728196,-0.0004265211461593051,-0.0012084320938230855,0.0023232211676651364,-6.176997793760893e-11
forward_1,361.962,-0.041703232782767004,-0.03541565800157004,9.776748803750586,-0.00022393992991861852,0.001129897995722203,0.001486218911589343,-6.180485661766643e-11
forward_1,361.971,0.025522243629204844,-0.04487301610823891,9.784024670293986,-0.0023162721976583834,0.00215707933336458,0.00042851587399442146,-6.183105849868461e-11
forward_1,361.98,0.009422071076312212,0.010635349499456766,9.790507370601482,-0.0002232966147202107,-0.00018428202412328396,-0.001273648447688052,-6.185728699827043e-11
forward_1,361.992,-0.025908682298336275,0.005676326983220649,9.82755283943235,0.0009402134129704703,0.0011967424422524128,0.001248263350305216,-6.189228268334564e-11
forward_1,362.001,0.023894475915135514,-0.023977738581924677,9.815342398433254,-0.0023046224459215498,-0.001882467043903423,0.00012420237524510657,-6.191853640757648e-11
forward_1,362.01,0.0003414177905767581,-0.002373392413496072,9.797434384663104,0.0006881185085615678,-0.0031978678573393385,-7.573690612444462e-05,-6.194478563280088e-11
forward_1,362.022,-0.04666129781466469,0.02553872692620236,9.783279412691014,0.0004407445303167833,-0.003527418785556763,-0.0012832577495200152,-6.197976048675764e-11
forward_1,362.031,-0.02901452887280674,0.09412505973957243,9.8271040633762,0.0026833655527267355,-0.00034699989196636895,0.00026290214167286894,-6.200596123926395e-11
forward_1,362.04,-0.02774464173540338,0.01307414413540329,9.818852161135148,0.0003906355746887453,0.001078855454952022,-0.0003878602970800635,-6.203212637714155e-11
forward_1,362.052,0.004830604868858415,-0.02846202759101333,9.758200326343278,0.0007381838146416797,0.004381641098504194,-0.0014002422481876,-6.206694242928436e-11
forward_1,362.061,-0.05066103384231183,0.03367076966182153,9.781208862676177,0.005633148718564447,-0.002465719213511157,0.0004714104536886277,-6.209298838992545e-11
forward_1,362.07,0.022749929173019136,0.005491360695365317,9.799427841352795,0.00032522270981623905,0.004123402949289624,-0.0039155580084832,-6.211896856565008e-11
forward_1,362.082,0.04242223531099983,-0.014157603084352526,9.781931756133293,0.0014558341126915133,-0.0002660699630715704,-0.0045322205353831805,-6.215349014036234e-11
forward_1,362.091,0.01477547293683642,0.009706098783879716,9.82226836992979,-0.0004745630147529386,0.0007164827170791622,0.002767188330965368,-6.217928186474908e-11
forward_1,362.1,0.034468497217831816,-0.04109572883278609,9.813878138936797,-0.0007297971927796834,0.0007218447271849011,-0.001565381520018308,-6.220497815257828e-11
forward_1,362.112,-0.016773881604713714,-0.0002502808948819916,9.873848279068739,0.0037636232697083557,-0.0027862132065298063,-0.0012128453648406455,-6.223907812634109e-11
forward_1,362.121,0.02489043753584448,-0.0069350862532080474,9.760520324261716,0.0014574352006196914,-0.00015688751309395697,0.0016389674904490523,-6.226452046752216e-11
forward_1,362.13,-0.02361683660191307,-0.05884431776934696,9.739147636156764,-0.0007486324978650871,0.002641569351321631,-0.0001559833144525515,-6.228984029243776e-11
forward_1,362.142,0.007436729416820964,0.014128489196320544,9.759193101600262,-0.0009819990694598935,0.001427202938472179,0.0027566833299880037,-6.23233967493747e-11
forward_1,362.151,0.05888309175411647,-0.0214992032079577,9.781528537647223,-0.0003450483851977432,0.0018675150804383601,-0.00046163473676135255,-6.234840195794719e-11
forward_1,362.16,0.022563116337356654,0.006296237400222597,9.831926834242775,-0.0018345774440863844,-0.003133715877611954,0.000978878170960321,-6.237326072193084e-11
forward_1,362.172,-0.02545067960318769,0.017393293077526815,9.751836151199099,-0.000788290272799495,-6.626500640681234e-05,0.0016659716696096805,-6.240616499466812e-11
forward_1,362.181,-0.015098455846987026,-0.04045551323893147,9.84020190143003,-0.0012078538471978887,0.0015615353273404284,-0.0019750611402340537,-6.24306543681158e-11
forward_1,362.19,0.0293427731994598,0.019767772554591202,9.786786311497414,0.0005984872181416648,-0.00010197219177283678,3.188790765071433e-05,-6.245497518957559e-11
forward_1,362.202,-0.04677961722670556,0.02820328991306482,9.8130958472582,-9.988797396581603e-05,-0.0007823757991694577,0.005309104047329962,-6.24871302168626e-11
forward_1,362.211,-0.06529007220312928,-0.0347435423028871,9.82170466276104,0.001968664944265839,-0.000691106977468949,-0.0014006082291064205,-6.251103520723755e-11
forward_1,362.22,-0.07673220111775357,0.04541302378622345,9.769490402372877,-0.0017843419354275697,0.0015547182153987302,0.0026041089187453102,-6.25347529830077e-11
forward_1,362.232,-0.07925587994376039,0.011592143135062623,9.767410179306925,-0.00023007425355989298,0.002209344298117837,0.0015993945838917215,-6.25660776461596e-11
forward_1,362.241,0.031177823845922475,0.01130570171689285,9.815651894017769,-0.00022727131760895126,-0.0028599371929027033,-0.000680059302161965,-6.258934134950031e-11
forward_1,362.25,0.036801841877906624,0.027049759635594146,9.747453266788273,-0.004936685169118136,0.0007847561909155147,0.0028593598135037987,-6.261240319561828e-11
forward_1,362.262,0.010304328410483345,-0.002777132203528119,9.777393274860271,0.0005082746907827872,-0.002584170961307314,-0.0025157960060931475,-6.264283234820562e-11
forward_1,362.271,0.008955350581509145,-0.008281074934933255,9.79027327220224,0.00037266537551609635,0.0018011894198844336,-0.0022616656225073967,-6.266541015279096e-11
forward_1,362.28,-0.02383611614261832,0.0038295254269412058,9.77673081471257,-0.0007039695420425696,-0.002356579046207019,-0.0016940912236103056,-6.268777505195025e-11
forward_1,362.292,0.011775104150893908,0.02084717118223086,9.752348851250003,-0.0037767861337710987,-0.003294622179714104,0.0007372849020540521,-6.271726047717065e-11
forward_1,362.301,0.015435322607869466,-0.0026455407325556065,9.779881888221704,0.0011853979420468799,-0.0024118554525580007,-0.0027706413040465756,-6.273912142676053e-11
forward_1,362.31,-0.036416315115744564,-0.011129675649755167,9.784371873936184,0.004533881507428001,-0.0015051682340185004,-0.0023357792678714937,-6.276076385292746e-11
forward_1,362.322,0.005822349159977485,0.007306682150060093,9.81279085430132,-0.00016998289674890967,0.0008827738698209002,0.0007128134172272341,-6.278927818142845e-11
forward_1,362.331,-0.04746141264726041,0.0036635049480025555,9.813602073590632,-0.0004433952297177429,-0.0046923366835652566,-0.0009047402562585395,-6.281040646228906e-11
forward_1,362.34,-0.060211501798660985,-0.026945357376143703,9.782069151799282,-0.0020324631665547166,-0.0017038439962159685,-8.759186154694412e-05,-6.283131402437744e-11
forward_1,362.352,0.031728590840160005,-0.04830225560429423,9.811436374213256,5.096693008987405e-05,-0.0017648983000751583,0.0013014635192662811,-6.285884769247004e-11
forward_1,362.361,0.022308204574473276,0.005753951840904719,9.802515922918172,-0.0006715482218296254,0.0005396914119025442,-0.0003783325756704608,-6.287924162462573e-11
forward_1,362.37,0.021265265955732214,0.03271542342697948,9.823620888968815,-0.001498017736207241,0.005048094995230278,0.0005761319526795227,-6.289941705229891e-11
forward_1,362.382,0.010630908866217812,0.012878411318813891,9.811022630241572,-0.0022547346936934243,0.0020817466046875164,-3.075800436388665e-05,-6.292597990850742e-11
forward_1,362.391,0.015074187235625376,0.03234154799694435,9.787660340410769,-0.0016300538145646965,8.250074871167804e-05,0.0012901829340344756,-6.294565198415944e-11
forward_1,362.4,-0.019697080561580413,-0.03694188721459902,9.77304609578962,0.0014807369578908047,-0.0023799070875599945,0.001460574411364642,-6.296511208474596e-11
forward_1,362.412,-0.015414341681158638,-0.009502420538601725,9.824815171927545,0.00029102876077805837,-6.370055837187768e-05,0.0009166482529060397,-6.299073402437472e-11
forward_1,362.421,0.05184309162980132,-0.012615384354161256,9.796939252566185,-0.00045571415294308346,-0.00033235548232744773,-0.002871122054657248,-6.300971139608643e-11
forward_1,362.43,-0.07703922032955314,0.07227199544296341,9.755970166913945,0.0003867197897743922,-0.0005817624628726693,-0.0040523371767530484,-6.302848762472362e-11
forward_1,362.442,-0.01252020599220871,0.014396058841226465,9.77621463644444,-0.0008182153000122703,0.0008339171702095348,-0.000622446966642811,-6.305321693051112e-11
forward_1,362.451,0.0017352884116997923,-0.022188621497603225,9.785642863333882,-4.536967919647526e-05,-0.0013721000631432727,0.0048242486527493664,-6.307154059081705e-11
forward_1,362.46,-0.03296846108631799,-0.006570285692743529,9.788796680671332,0.00017428012564336574,-0.0028019950483007257,0.00092150684707311,-6.308967818882138e-11
forward_1,362.472,0.0003130014914826152,-0.04174220354304554,9.775398125837892,0.0011231280235763914,-0.0005638698231921303,-0.0016360108980554816,-6.311358113258691e-11
forward_1,362.481,0.016433157625733382,0.02423310808821418,9.843644532891311,-0.0027063278028734016,-0.0013796962809554233,-0.0003406661728663501,-6.313130564726254e-11
forward_1,362.49,0.05778680982128557,-0.0022659115485490814,9.785970995291938,0.00040618746345002913,0.0008547221572503842,-0.0033991535878414407,-6.314886242456582e-11
forward_1,362.502,-0.014193436367930419,0.01689120458228369,9.787109323790412,0.0018162765674766801,0.0009335339566350808,-0.0021774535712049316,-6.317202174138363e-11
forward_1,362.511,0.024432996704065558,0.027282940073545908,9.79992951420668,0.0006270489658837737,0.0010090573037620856,0.0006428377374601622,-6.318921267902363e-11
forward_1,362.52,0.016291842094225288,0.04577075217877729,9.750511426024676,0.0019785173623971322,-0.0005897899176785865,-0.0019278508423938522,-6.320625750297747e-11
forward_1,362.532,0.014743357552292998,0.043966067986327566,9.780374428830434,0.0010619547618603495,0.0030476399546328576,0.00038902823868479966,-6.322877008097356e-11
forward_1,362.541,-0.00017637977467644674,-0.01544446017066145,9.777026925416514,8.070544399782349e-05,0.0012691159518364776,0.0001802514455961867,-6.324550338759684e-11
forward_1,362.55,0.01787591270007531,0.016633817967164392,9.803504296710257,0.00016233268986021038,0.0036497788772488124,0.0018595862975647715,-6.326211612749977e-11
forward_1,362.562,0.06049499903751281,-0.006655833861687083,9.744974970455758,-0.0007547442459234163,0.0005203255511109671,-0.0035225267663169415,-6.328409264218822e-11
forward_1,362.571,0.031058589227985805,-0.014057968073834422,9.811247091487838,-0.00022611094903606636,0.0026664928763719177,-0.001286023444556944,-6.330045494030314e-11
forward_1,362.58,0.019756308634616995,-0.054389760630028386,9.830727369882766,0.0032239445797363096,0.0023685335637621003,0.0031323310097082385,-6.331672390521636e-11
forward_1,362.592,0.012294670865619917,0.039304494555550754,9.781518955826444,-0.0007425540065946144,-0.0007102200327210266,-0.0015592733992534434,-6.333828529336525e-11
forward_1,362.601,-0.05482040300511307,-3.8171555376278194e-05,9.776142380410509,0.0009231688736076893,0.00014406811625998004,0.002769342006558816,-6.335436937603935e-11
forward_1,362.61,0.0037132085291636543,0.005694878974851934,9.831796241921113,-0.0018826631352606231,-0.0009430482503675593,0.0014134862699139272,-6.337038854741923e-11
forward_1,362.622,0.03098950391706294,-0.022379924666521965,9.753250286722158,0.0023478428614265487,-0.00223554794763061,0.0005607603322554367,-6.339166290429293e-11
forward_1,362.631,-0.058495589105094316,-0.005118249551244743,9.83153598681633,-0.002299914702861214,-0.003859062894993501,-0.002128354951314846,-6.34075668118191e-11
forward_1,362.64,-0.01461091696535942,0.015204578407219234,9.812051379604517,-0.002062355857868211,0.0005729513856053075,-0.002362767059283936,-6.342343694238366e-11
forward_1,362.652,0.0016381629482475528,0.027927948425496098,9.856372787318895,-0.0004005492313064465,-0.0011197620295139775,0.005614860822972415,-6.344455988479871e-11
forward_1,362.661,-0.0007582786878129649,-0.017573964772440394,9.810727140867582,-0.0006949541892741393,0.0021165450963124637,-0.0033809007523780328,-6.346038722566154e-11
forward_1,362.67,0.007072891253415668,-0.02851279735733834,9.777057149444015,0.002135076410175834,-0.0006369432879883882,0.0025398028774597406,-6.347621069261457e-11
forward_1,362.682,-0.03439985144994344,0.0619534351846803,9.870986648583749,0.00010706392960806308,-0.0005791267863787151,-0.0005617051106762078,-6.349732039451011e-11
forward_1,362.691,-0.013238506261957744,-0.003764920641414222,9.844755390925556,-0.0030127993076448168,0.0008910705290941428,-0.0008909045822201744,-6.351317308741908e-11
forward_1,362.7,-0.015260179126949665,-0.020503067610869386,9.777275534620493,-0.00042986525837827703,0.0010942358100152045,-0.0006603889478856287,-6.35290541310189e-11
forward_1,362.712,-0.009973766404036069,-0.07467166290912082,9.855677628418702,0.002596669862455938,-0.0014623688316410285,-0.000556603204877911,-6.355028743702621e-11
forward_1,362.721,-0.026341334682312458,0.00824810373438947,9.770592732449044,-0.003649888727671477,0.000627196875693954,0.0024366576931975723,-6.356626894350652e-11
forward_1,362.73,-0.02666356255030412,0.039914671301967165,9.816222895978944,-0.0018578645020943222,0.0019007314899173711,0.00019028451581825227,-6.358230988639975e-11
forward_1,362.742,-0.032181921265805075,-0.024906797087993898,9.817359329401032,-0.002816349127402575,-0.0009247868996738589,0.0005953394831948389,-6.360380397802806e-11
forward_1,362.751,-0.05439467295824772,0.019952962063306597,9.787064783276247,0.0028128569897131776,0.0002497898690783534,-0.0004969248368972011,-6.362001569878125e-11
forward_1,362.76,-0.02984715555879691,0.07427634895959095,9.816120241274415,0.0020110510303962613,-0.0022631663525602436,0.0008209777861459171,-6.363631545944796e-11
forward_1,362.772,-0.06866682503286943,0.07128901770472351,9.805271759700238,-0.0011766255241586342,0.0014045543711955,0.001136509366634376,-6.365819959569616e-11
forward_1,362.781,-0.02382880674825477,-0.04392463255085005,9.785317342344907,-0.0014005376810992368,-0.0032746982098072353,0.0006335453162848609,-6.367473700411447e-11
forward_1,362.79,-0.05297645980439995,-0.02019002141207369,9.779929748792052,0.00040661460710117876,-0.0034786587990352923,-0.0012673884852555971,-6.369139037003592e-11
forward_1,362.802,-0.01806922087885014,0.0009451712338218597,9.864106509687499,1.6343876592319876e-05,0.0007296517037885176,0.0016151741060149586,-6.371378840519324e-11
forward_1,362.811,0.02540421542743084,-0.036875945437954964,9.834602415219878,-0.002145478766182313,-0.00043851687911920475,0.0016068276690420838,-6.373074142158929e-11
forward_1,362.82,0.0367723434764058,0.0034613869129110682,9.803138983523956,-0.002942350802624359,0.0008444292768394543,0.00047758241400649185,-6.374783556918229e-11
forward_1,362.832,-0.04656325489293081,-0.03308126989595071,9.776661644363392,-0.001720858401316639,0.001416410399418379,0.0007870176141815697,-6.377085886490661e-11
forward_1,362.841,-0.02641394426978207,-0.03390271771124985,9.82834388671014,0.002983924301829491,0.0003871967526133988,0.002313827496480995,-6.37883085627433e-11
forward_1,362.85,0.019763776568369154,0.022900539509214207,9.785244981672607,0.00420160341569189,-0.001578629587705878,-0.0004115371339910056,-6.380592187506103e-11
forward_1,362.862,-0.024337589497239912,-0.021768729218454873,9.805356141371108,-0.0012285166175641168,0.0015352880407526269,-0.00038860925387439454,-6.382967111158127e-11
forward_1,362.871,0.03728487516156325,0.02497880712414946,9.818762183110666,-0.003401998761566166,0.0009448425880762053,0.0011234434458706763,-6.384768915640051e-11
forward_1,362.88,-0.06345304629394209,0.040213951247560366,9.792808452638825,-0.004996277572233873,-0.0002821136805469229,0.0007894656464561601,-6.38658895823426e-11
forward_1,362.892,0.03969148537927181,0.04400999010462099,9.733669275246575,0.0037524348789164117,-0.003793803062155656,0.0006057002364953567,-6.389045019463026e-11
forward_1,362.901,-0.0025612396953791877,-0.033133348666417636,9.824326799305423,0.0023421516266676694,-0.0007465764323615513,0.002143992546733302,-6.39090967917592e-11
forward_1,362.91,-0.016104443165873762,0.004208747386870737,9.762969706101746,3.5086491349030143e-05,0.0003662063287792708,-0.0009009210427053105,-6.392794154291223e-11
forward_1,362.922,0.029842319935990215,0.001951001284689423,9.772433616621667,-0.0030855188643558,0.0013653245484262287,-0.0007849962364005503,-6.395338318332167e-11
forward_1,362.931,-0.019443479708631247,0.02672499339415942,9.801850228241257,-0.0004701893431816785,-0.002711815487665557,0.0021803745496365556,-6.397270525678995e-11
forward_1,362.94,-0.011564580447581066,-0.003688146391124388,9.784182050841578,-0.0005077156344175175,-0.001721292849434485,-2.184931910335509e-05,-6.399223738262719e-11
forward_1,362.952,-0.0028702799881301783,-0.007633661374381141,9.832944126185373,-0.002894092104643551,0.0007528904990675159,-0.0019176838239339242,-6.401861170380074e-11
forward_1,362.961,0.06068363723719745,0.036415926975818975,9.791195076485593,-0.0005139828787268762,-0.00056571548361701,-0.00045320003736365054,-6.403864418550476e-11
forward_1,362.97,-0.0025869318346192836,0.034962442808105364,9.821831067076895,-0.0007436996249991543,-0.0005851497074260934,-0.004922222446538362,-6.405889397089507e-11
forward_1,362.982,-0.013468199740759395,0.0018707388043044876,9.795569624510224,-0.0012024761606906013,0.002419776249811222,-0.0009067223501028538,-6.408623442115616e-11
forward_1,362.991,-0.019054767683841983,0.028959639494799114,9.759868966351158,0.002622335366015755,-0.0038463304814931147,0.004926932856028918,-6.410699679005044e-11
forward_1,363.0,-0.026792699908743285,-0.017342061883419954,9.80551836475946,-0.0019037315867740197,-0.0009591546325378138,-0.000754889235301877,-6.412797994889471e-11
forward_1,363.012,-0.042326532086078866,-0.01812136905475222,9.860505271813306,0.000978692093588734,-0.0009133456932858158,0.0026522874198515417,-6.415630009937819e-11
forward_1,363.021,0.005931667106534552,-0.019060613192113895,9.830306782376875,-0.003083874383773863,-0.0014729676284120539,-0.0028132162498229548,-6.417779759496641e-11
forward_1,363.03,-0.04478060428293883,0.020158785049563765,9.816446397050907,-0.0021881784440294033,-0.001900513593231328,-0.00048552169308405585,-6.419951474506206e-11
forward_1,363.042,0.00459141411253213,0.009470167199577452,9.813974938780317,5.423106067429858e-05,-0.001402902251999957,0.0006109722171585358,-6.42288107261238e-11
forward_1,363.051,-0.030501627283633297,-0.03764804761420437,9.801359889943026,0.0027766391174379743,-0.005615497428260211,0.0003918459783644062,-6.42510345632308e-11
forward_1,363.06,-0.007498461208527603,-0.04438112403043764,9.825859743659693,0.0014449717103157851,0.0017034237950717614,-0.001737230643628875,-6.427347229567205e-11
forward_1,363.072,-0.013362017054438076,0.02083316849909222,9.82097703081817,0.003212628704052513,-0.0012707155666671196,0.0003337799253373349,-6.430371772010599e-11
forward_1,363.081,-0.03380427394826616,0.09924398765117974,9.793136648344454,-0.002836381596927772,-0.002318308249562964,0.0016918511156173417,-6.432664432772411e-11
forward_1,363.09,-0.0024716205147455646,0.014325939763423206,9.80536144516144,0.0028106644908673446,-0.001369878445381426,0.003881721570604607,-6.434977579832772e-11
forward_1,363.102,0.035838965872918495,0.04337127454260285,9.801322176803613,-0.004744423837968431,0.0022219781423766273,-8.14060319585123e-05,-6.43809284758702e-11
forward_1,363.111,0.0016986301551546374,-0.030019033756517922,9.759780581432135,0.0024717554478198215,-0.0036832576517546534,-0.0007183196499105583,-6.440452059079897e-11
forward_1,363.12,-0.012841913085563707,-0.029022951687268646,9.764967576711824,0.0008436025086099581,-0.0021955439154797713,-0.0003237096941005994,-6.442830299140664e-11
forward_1,363.132,0.051751243840591196,-0.0036847525480534576,9.747967520175212,-0.00337933934564167,0.002271356041819204,0.00014339421511687896,-6.44603004434914e-11
forward_1,363.141,0.02051062523351674,0.06596725513038858,9.791606919155152,0.0033849509764495656,-0.0017569088180203057,-0.000173432508663192,-6.448450710081358e-11
forward_1,363.15,-0.0018957135727898737,-0.013476151015650419,9.816076266357465,-0.0020006808587549885,-0.00046816788663603577,-0.001687818772196171,-6.450888629527398e-11
forward_1,363.162,0.029515356900558096,0.004696182089799859,9.894496264087897,3.887533294510135e-05,0.003196577961270575,0.003041113895020197,-6.454165024163997e-11
forward_1,363.171,-0.03691084745486797,0.003430215548041453,9.815943738330578,-0.0010558213387085575,-0.003982576739903714,0.0018984117557108867,-6.456640812913115e-11
forward_1,363.18,-0.015532583947855791,0.0006330630847149787,9.840187057174717,-0.00507244212329073,-0.00021079508185094223,0.0019788122325369913,-6.459131741705585e-11
forward_1,363.192,0.019427323306059008,-0.05197267497738571,9.779069371488205,-0.0009627469453114123,-0.00030110411498987316,-0.0009358842693677669,-6.462475340432605e-11
forward_1,363.201,-0.03777406718605518,-0.07373001281538123,9.779989302765973,0.002659105875754151,-0.00118764279353098,0.003817156599456345,-6.46499889618401e-11
forward_1,363.21,-0.03361429240561557,0.014494862333144105,9.77924577953636,-0.0028422327767660413,-0.0008460516479011093,-0.0017125256038319785,-6.467535157513175e-11
forward_1,363.222,-0.012006237964656259,-0.03458672394177532,9.8458305495186,-0.0014900762984369532,0.0010005054213286263,-0.0012364961557948396,-6.47093530126422e-11
forward_1,363.231,-0.07804255806197888,0.04254911937568372,9.791259105461947,-0.003180390670353729,0.0017598421219750414,-0.0026181299480354248,-6.473498234396142e-11
forward_1,363.24,-0.01788569640413803,-0.04083341182822451,9.780351248682207,0.0008723731101852802,0.002552880977571962,0.0017161295670293654,-6.476071241271439e-11
forward_1,363.252,0.002325051236596475,0.02610899012797228,9.824828516593938,-0.0021223608882009757,-0.0005895968928455244,-0.0007547254388117899,-6.479516072448294e-11
forward_1,363.261,-0.028141919070024113,0.04998951962661755,9.798140643124988,-2.9687672724047748e-05,0.002500961460102792,0.0004780320109112923,-6.482109227297892e-11
forward_1,363.27,0.03224352217688599,-0.02144607303887203,9.808643617989548,0.0013071729253433463,0.001468237824638555,-0.0008869990892963253,-6.484709619101198e-11
forward_1,363.282,0.04157089100474331,0.05941993478995426,9.786232419557418,-0.001217732314556759,-0.0003010910318323735,0.00177499404241412,-6.488186431650866e-11
